index, elapse_time, susp_fl, susp_fr, susp_rl, susp_rr, acc_x, acc_y, acc_z, rot_x, rot_y, rot_z
0, 580, 36.37951, 42.91965, 52.16781, 28.20434, -0.76375, 2.74376, 9.64863, 0.00626, 0.08327, 0.03171
1, 620, 36.43061, 42.91965, 52.16781, 28.20434, -0.70030, 2.66235, 9.70729, 0.00693, 0.08220, 0.02971
2, 660, 36.43061, 42.91965, 52.16781, 28.20434, -0.71587, 2.66355, 9.61511, 0.00959, 0.07954, 0.03198
3, 700, 36.43061, 42.91965, 52.16781, 28.20434, -0.71706, 2.68031, 9.52892, 0.00973, 0.07727, 0.03584
4, 740, 36.43061, 42.91965, 52.16781, 28.20434, -0.72425, 2.70305, 9.61631, 0.00719, 0.08087, 0.03238
5, 784, 36.43061, 42.91965, 52.16781, 28.20434, -0.69911, 2.66834, 9.56484, 0.00759, 0.07874, 0.03437
6, 824, 36.43061, 42.91965, 52.16781, 28.20434, -0.72425, 2.69827, 9.58519, 0.00640, 0.08194, 0.03118
7, 864, 36.43061, 42.91965, 52.16781, 28.20434, -0.69312, 2.70545, 9.59117, 0.01146, 0.07568, 0.03384
8, 912, 36.43061, 42.91965, 52.16781, 28.20434, -0.70988, 2.68031, 9.87608, 0.00493, 0.08247, 0.03224
9, 956, 36.43061, 42.91965, 52.16781, 28.20434, -0.69671, 2.69467, 9.56484, 0.00626, 0.08220, 0.03198
10, 996, 36.43061, 42.91965, 52.16781, 28.20434, -0.75417, 2.72700, 9.64983, 0.00520, 0.08154, 0.03131
11, 1036, 36.43061, 42.91965, 52.16781, 28.20434, -0.78530, 2.71263, 9.85573, 0.00466, 0.08140, 0.03144
12, 1076, 36.43061, 42.91965, 52.16781, 28.20434, -0.71706, 2.75453, 9.48942, 0.00853, 0.07981, 0.03331
13, 1116, 36.43061, 42.91965, 52.16781, 28.20434, -0.71706, 2.67911, 9.59835, 0.01053, 0.07834, 0.03304
14, 1160, 36.43061, 42.91965, 52.16781, 28.20434, -0.69432, 2.69108, 9.63068, 0.00933, 0.08367, 0.03238
15, 1199, 36.43061, 42.91965, 52.16781, 28.20434, -0.71706, 2.69827, 9.61751, 0.00653, 0.08154, 0.03371
16, 1238, 36.43061, 42.91965, 52.16781, 28.20434, -0.71946, 2.68270, 9.63786, 0.00640, 0.07914, 0.03251
17, 1277, 36.43061, 42.91965, 52.16781, 28.20434, -0.75298, 2.68270, 9.56124, 0.00853, 0.08127, 0.03224
18, 1316, 36.43061, 42.91965, 52.16781, 28.20434, -0.69073, 2.68270, 9.59716, 0.00600, 0.07941, 0.03437
19, 1358, 36.43061, 42.91965, 52.16781, 28.20434, -0.69432, 2.70904, 9.64265, 0.00693, 0.07821, 0.03158
20, 1397, 36.43061, 42.91965, 52.16781, 28.20434, -0.84755, 2.88022, 9.76954, -0.00266, 0.08260, 0.03171
21, 1436, 36.43061, 42.91965, 52.16781, 28.20434, -0.76136, 2.68270, 9.66898, -0.00986, 0.08500, 0.02984
22, 1475, 36.43061, 42.91965, 52.16781, 28.20434, -0.76255, 2.60010, 9.57322, -0.06915, 0.11338, 0.00626
23, 1514, 36.43061, 42.91965, 52.16781, 28.20434, -0.76136, 2.60489, 9.53132, 0.01892, 0.07128, 0.03637
24, 1556, 36.43061, 42.91965, 52.16781, 28.20434, -0.60214, 2.62524, 9.73842, 0.01958, 0.07394, 0.03890
25, 1595, 36.43061, 42.91965, 52.16781, 28.20434, -0.61890, 2.57257, 9.47026, 0.00919, 0.06928, 0.03784
26, 1634, 36.43061, 42.91965, 52.16781, 28.20434, -0.73622, 2.67193, 9.67018, 0.00600, 0.07941, 0.03464
27, 1673, 36.43061, 42.91965, 52.16781, 28.20434, -0.67636, 2.66355, 9.61990, 0.00933, 0.07674, 0.03344
28, 1712, 36.43061, 42.91965, 52.16781, 28.20434, -0.67277, 2.70784, 9.62948, 0.00879, 0.08500, 0.03211
29, 1754, 36.43061, 42.91965, 52.16781, 28.20434, -0.63925, 2.68031, 9.54329, 0.01572, 0.07687, 0.03477
30, 1793, 36.43061, 42.91965, 52.16781, 28.20434, -0.62130, 2.46842, 9.39485, -0.01053, 0.07861, 0.03144
31, 1832, 36.43061, 42.91965, 52.16781, 28.20434, -0.74340, 2.63123, 9.74679, 0.00640, 0.08207, 0.03304
32, 1871, 36.43061, 42.91965, 52.16781, 28.20434, -0.73023, 2.63003, 9.43316, 0.00653, 0.08034, 0.03451
33, 1910, 36.43061, 42.91965, 52.16781, 28.20434, -0.73981, 2.70425, 9.67736, 0.00600, 0.08327, 0.03171
34, 1952, 36.43061, 42.91965, 52.16781, 28.20434, -0.72784, 2.70066, 9.60434, 0.00813, 0.07901, 0.03291
35, 1990, 36.43061, 42.91965, 52.16781, 28.20434, -0.71706, 2.67193, 9.57920, 0.00813, 0.07847, 0.03304
36, 2028, 36.43061, 42.91965, 52.16781, 28.20434, -0.73143, 2.67552, 9.62828, 0.00746, 0.08007, 0.03477
37, 2066, 36.43061, 42.91965, 52.16781, 28.20434, -0.72544, 2.70186, 9.67617, 0.00959, 0.07874, 0.03451
38, 2104, 36.43061, 42.91965, 52.16781, 28.20434, -0.68235, 2.43131, 10.15620, -0.00546, 0.06182, 0.03544
39, 2157, 36.43061, 42.91965, 52.16781, 28.20434, -0.74340, 2.66594, 9.73363, 0.01132, 0.07887, 0.03357
40, 2198, 36.43061, 42.91965, 52.16781, 28.20434, -0.71826, 2.83354, 10.90559, -0.05129, 0.06075, 0.03078
41, 2239, 36.43061, 42.91965, 52.16781, 28.20434, -0.85114, 2.70665, 9.40682, 0.01399, 0.07887, 0.03584
42, 2280, 36.43061, 42.91965, 52.16781, 28.20434, -0.80685, 2.74974, 9.65701, -0.00013, 0.08154, 0.03304
43, 2321, 36.43061, 42.91965, 52.16781, 28.20434, -0.59496, 2.75453, 8.74841, 0.02305, 0.08060, 0.03584
44, 2365, 36.43061, 42.91965, 52.16781, 28.20434, -0.65122, 2.72101, 9.21409, 0.01599, 0.08247, 0.03371
45, 2406, 36.43061, 42.91965, 52.16781, 28.20434, -0.77213, 2.65876, 9.64624, 0.00426, 0.07741, 0.03264
46, 2447, 36.43061, 42.91965, 52.16781, 28.20434, -0.75298, 2.73298, 9.64265, 0.00973, 0.08034, 0.03291
47, 2488, 36.43061, 42.91965, 52.16781, 28.20434, -0.70868, 2.68989, 9.66180, 0.00533, 0.08034, 0.03584
48, 2532, 36.43061, 42.91965, 52.16781, 28.20434, -0.68235, 2.73298, 9.58279, 0.00759, 0.08047, 0.03251
49, 2573, 36.43061, 42.91965, 52.16781, 28.20434, -0.71826, 2.64679, 9.61631, 0.00853, 0.07994, 0.03251
50, 2614, 36.43061, 42.91965, 52.16781, 28.20434, -0.68354, 2.67672, 9.64504, 0.00946, 0.07981, 0.03224
51, 2655, 36.43061, 42.91965, 52.16781, 28.20434, -0.73741, 2.72101, 9.57082, 0.00759, 0.08021, 0.03198
52, 2696, 36.43061, 42.91965, 52.16781, 28.20434, -0.68235, 2.70186, 9.63427, 0.00933, 0.08007, 0.03331
53, 2740, 36.43061, 42.91965, 52.16781, 28.20434, -0.71826, 2.67552, 9.64983, 0.00826, 0.07967, 0.03251
54, 2781, 36.43061, 42.91965, 52.16781, 28.20434, -0.74939, 2.70904, 9.63427, 0.00973, 0.08074, 0.03264
55, 2822, 36.43061, 42.91965, 52.16781, 28.25543, -0.73981, 2.69108, 9.59716, 0.00640, 0.07981, 0.03477
56, 2863, 36.43061, 42.91965, 52.16781, 28.20434, -0.70868, 2.68869, 9.65462, 0.00919, 0.07914, 0.03397
57, 2904, 36.43061, 42.91965, 52.16781, 28.20434, -0.71587, 2.67313, 9.58399, 0.00839, 0.08087, 0.03184
58, 2948, 36.43061, 42.91965, 52.16781, 28.20434, -0.73622, 2.71862, 9.58399, 0.00786, 0.07901, 0.03331
59, 2989, 36.43061, 42.91965, 52.16781, 28.20434, -0.74699, 2.68270, 9.59835, 0.00666, 0.07887, 0.03331
60, 3030, 36.43061, 42.91965, 52.16781, 28.20434, -0.71706, 2.67911, 9.65103, 0.00759, 0.08127, 0.03357
61, 3071, 36.43061, 42.91965, 52.16781, 28.20434, -0.73622, 2.68989, 9.60793, 0.00853, 0.07927, 0.03251
62, 3112, 36.43061, 42.91965, 52.16781, 28.20434, -0.70509, 2.69108, 9.59237, 0.00719, 0.07994, 0.03424
63, 3156, 36.43061, 42.91965, 52.16781, 28.20434, -0.75537, 2.69946, 9.61871, 0.00839, 0.07954, 0.03291
64, 3197, 36.43061, 42.91965, 52.16781, 28.20434, -0.70509, 2.67073, 9.56723, 0.00866, 0.08047, 0.03264
65, 3238, 36.43061, 42.91965, 52.16781, 28.20434, -0.68354, 2.63482, 9.65582, 0.00759, 0.07874, 0.03144
66, 3279, 36.43061, 42.91965, 52.16781, 28.20434, -0.71228, 2.66116, 9.58279, 0.00826, 0.07781, 0.03184
67, 3320, 36.43061, 42.91965, 52.16781, 28.20434, -0.71587, 2.69946, 9.63187, 0.00719, 0.07847, 0.03224
68, 3364, 36.43061, 42.91965, 52.16781, 28.20434, -0.73023, 2.69467, 9.65222, 0.00813, 0.07834, 0.03291
69, 3405, 36.43061, 42.91965, 52.16781, 28.20434, -0.69192, 2.69827, 9.58638, 0.00799, 0.07821, 0.03504
70, 3446, 36.43061, 42.91965, 52.16781, 28.20434, -0.69312, 2.70305, 9.62110, 0.00866, 0.08021, 0.03491
71, 3487, 36.43061, 42.91965, 52.16781, 28.20434, -0.68354, 2.68270, 9.58998, 0.00786, 0.08007, 0.03411
72, 3528, 36.43061, 42.91965, 52.16781, 28.20434, -0.69911, 2.71263, 9.65222, 0.00746, 0.07927, 0.03371
73, 3572, 36.43061, 42.91965, 52.16781, 28.20434, -0.74819, 2.65278, 9.61751, 0.00866, 0.08100, 0.03304
74, 3613, 36.43061, 42.91965, 52.16781, 28.20434, -0.78889, 2.68989, 9.75158, 0.02092, 0.07821, 0.03118
75, 3654, 36.43061, 42.91965, 52.16781, 28.20434, -0.66918, 2.59891, 9.53491, 0.00653, 0.07781, 0.03357
76, 3695, 36.43061, 42.91965, 52.16781, 28.20434, -0.66319, 2.68031, 9.63906, 0.01053, 0.07434, 0.03504
77, 3736, 36.43061, 42.91965, 52.16781, 28.20434, -0.67995, 2.69827, 9.57800, 0.01092, 0.07674, 0.03411
78, 3790, 36.43061, 42.91965, 52.16781, 28.20434, -0.71108, 2.67432, 9.61631, 0.00373, 0.08434, 0.03064
79, 3831, 36.43061, 42.91965, 52.16781, 28.20434, -0.76974, 2.65278, 9.58758, 0.00759, 0.08114, 0.03317
80, 3872, 36.43061, 42.91965, 52.16781, 28.20434, -0.75537, 2.66953, 9.61392, 0.00919, 0.07834, 0.03317
81, 3913, 36.43061, 42.91965, 52.16781, 28.20434, -0.73861, 2.70066, 9.62230, 0.00586, 0.07901, 0.03371
82, 3954, 36.43061, 42.91965, 52.16781, 28.20434, -0.68833, 2.66714, 9.63786, 0.00666, 0.07874, 0.03291
83, 4006, 36.43061, 42.91965, 52.16781, 28.20434, -0.81642, 2.77129, 9.81982, 0.02585, 0.08074, 0.03517
84, 4047, 36.43061, 42.91965, 52.16781, 28.20434, -0.82839, 2.69827, 9.76236, 0.00626, 0.08380, 0.03184
85, 4088, 36.43061, 42.91965, 52.16781, 28.20434, -0.86670, 2.70186, 9.45590, 0.01759, 0.07328, 0.03357
86, 4129, 36.43061, 42.91965, 52.16781, 28.20434, -0.73023, 2.64320, 9.71208, 0.00853, 0.08007, 0.03424
87, 4173, 36.43061, 42.91965, 52.16781, 28.20434, -0.72065, 2.71622, 9.64983, 0.00466, 0.07941, 0.03411
88, 4214, 36.43061, 42.91965, 52.16781, 28.20434, -0.69791, 2.66116, 9.62110, 0.01013, 0.07781, 0.03291
89, 4255, 36.43061, 42.91965, 52.16781, 28.20434, -0.75417, 2.63123, 9.80665, 0.00520, 0.08340, 0.03437
90, 4296, 36.43061, 42.91965, 52.16781, 28.20434, -0.72664, 2.68510, 9.53850, 0.00879, 0.07981, 0.03504
91, 4337, 36.43061, 42.91965, 52.16781, 28.20434, -0.74699, 2.70904, 9.63187, 0.00759, 0.08021, 0.03317
92, 4381, 36.43061, 42.91965, 52.16781, 28.20434, -0.70270, 2.70186, 9.50857, 0.00786, 0.07701, 0.03637
93, 4422, 36.43061, 42.91965, 52.16781, 28.20434, -0.69073, 2.83952, 10.21366, 0.00226, 0.07714, 0.03158
94, 4463, 36.43061, 42.91965, 52.16781, 28.20434, -0.69791, 2.72460, 9.62469, 0.00493, 0.08673, 0.03144
95, 4504, 36.43061, 42.91965, 52.16781, 28.20434, -0.75776, 2.62644, 9.51575, 0.00933, 0.07834, 0.03411
96, 4545, 36.43061, 42.91965, 52.16781, 28.20434, -0.70030, 2.67911, 9.66779, 0.00679, 0.08021, 0.03411
97, 4589, 36.43061, 42.91965, 52.16781, 28.20434, -0.65721, 2.73657, 9.37210, 0.00919, 0.06435, 0.03611
98, 4630, 36.43061, 42.91965, 52.16781, 28.20434, -0.75896, 2.69587, 9.47026, 0.00773, 0.07621, 0.03078
99, 4671, 36.43061, 42.91965, 52.16781, 28.20434, -0.72784, 2.71502, 9.62110, 0.00719, 0.08021, 0.03317
100, 4712, 36.43061, 42.91965, 52.16781, 28.20434, -0.70270, 2.71383, 9.62230, 0.00839, 0.07701, 0.03224
101, 4753, 36.43061, 42.91965, 52.16781, 28.20434, -0.67636, 2.65996, 9.60554, 0.00853, 0.08114, 0.03198
102, 4797, 36.43061, 42.91965, 52.16781, 28.20434, -0.76974, 2.68629, 9.55047, 0.00933, 0.08087, 0.03344
103, 4838, 36.43061, 42.91965, 52.16781, 28.20434, -0.70390, 2.67911, 9.57441, 0.00813, 0.07954, 0.03491
104, 4879, 36.43061, 42.91965, 52.16781, 28.20434, -0.71826, 2.65996, 9.62589, 0.00866, 0.07927, 0.03411
105, 4920, 36.43061, 42.91965, 52.16781, 28.20434, -0.74939, 2.69946, 9.66060, 0.00999, 0.08274, 0.03291
106, 4961, 36.43061, 42.91965, 52.16781, 28.20434, -0.75417, 2.76770, 9.58519, 0.01186, 0.07874, 0.03451
107, 5005, 36.43061, 42.91965, 52.16781, 28.20434, -0.72425, 2.69827, 9.53491, 0.00759, 0.07714, 0.03198
108, 5046, 36.43061, 42.91965, 52.16781, 28.20434, -0.72544, 2.67193, 9.62948, 0.00746, 0.08100, 0.03344
109, 5087, 36.43061, 42.91965, 52.16781, 28.20434, -0.68714, 2.65756, 9.63666, 0.00826, 0.07981, 0.03411
110, 5128, 36.43061, 42.91965, 52.16781, 28.20434, -0.70749, 2.78565, 9.56484, 0.01172, 0.07701, 0.03504
111, 5169, 36.43061, 42.91965, 52.16781, 28.20434, -0.72305, 2.71263, 9.42358, 0.00906, 0.08127, 0.03357
112, 5213, 36.43061, 42.91965, 52.16781, 28.20434, -0.67995, 2.65756, 9.68095, 0.00799, 0.08180, 0.03357
113, 5254, 36.43061, 42.91965, 52.16781, 28.20434, -0.72305, 2.63242, 9.50618, 0.00626, 0.07594, 0.03371
114, 5295, 36.43061, 42.91965, 52.16781, 28.20434, -0.71347, 2.67672, 9.56723, 0.00839, 0.07954, 0.03344
115, 5336, 36.43061, 42.91965, 52.16781, 28.20434, -0.83079, 2.70186, 9.84496, 0.00266, 0.07061, 0.03517
116, 5377, 36.43061, 42.91965, 52.16781, 28.20434, -0.72425, 2.68629, 9.56244, 0.00426, 0.08807, 0.03051
117, 5431, 36.43061, 42.91965, 52.16781, 28.20434, -0.73502, 2.66235, 9.74440, 0.00640, 0.08447, 0.03331
118, 5470, 36.43061, 42.91965, 52.16781, 28.20434, -0.67636, 2.67432, 9.60314, 0.00640, 0.07528, 0.03304
119, 5510, 36.43061, 42.91965, 52.16781, 28.20434, -0.73263, 2.64918, 9.63906, 0.00813, 0.07927, 0.03437
120, 5550, 36.43061, 42.91965, 52.16781, 28.20434, -0.73143, 2.68151, 9.58279, 0.00666, 0.08047, 0.03384
121, 5593, 36.43061, 42.91965, 52.16781, 28.20434, -0.69552, 2.74974, 9.77912, 0.01159, 0.07967, 0.03158
122, 5633, 36.43061, 42.91965, 52.16781, 28.20434, -0.67636, 2.64559, 9.46189, 0.00879, 0.07994, 0.03291
123, 5673, 36.43061, 42.91965, 52.16781, 28.20434, -0.66439, 2.68749, 9.58519, 0.00653, 0.08074, 0.03384
124, 5713, 36.43061, 42.91965, 52.16781, 28.20434, -0.71228, 2.64918, 9.66420, 0.01039, 0.07834, 0.03198
125, 5753, 36.43061, 42.91965, 52.16781, 28.20434, -0.67756, 2.66355, 9.58399, 0.00733, 0.08234, 0.03437
126, 5796, 36.43061, 42.91965, 52.16781, 28.20434, -0.67636, 2.65397, 9.60075, 0.00759, 0.07994, 0.03357
127, 5836, 36.43061, 42.91965, 52.16781, 28.20434, -0.80325, 2.72580, 9.96227, 0.01319, 0.08553, 0.03437
128, 5876, 36.43061, 42.91965, 52.16781, 28.20434, -0.72425, 2.64559, 9.77792, 0.00866, 0.08553, 0.03184
129, 5916, 36.43061, 42.91965, 52.16781, 28.20434, -0.68714, 2.68031, 9.71567, 0.00613, 0.08207, 0.03317
130, 5956, 36.43061, 42.91965, 52.16781, 28.20434, -0.72425, 2.67672, 9.75637, 0.00733, 0.08340, 0.03104
131, 5999, 36.43061, 42.91965, 52.16781, 28.20434, -0.73502, 2.68989, 9.63906, 0.00746, 0.08287, 0.03224
132, 6039, 36.43061, 42.91965, 52.16781, 28.20434, -0.72664, 2.69228, 9.63068, 0.00653, 0.08207, 0.03397
133, 6079, 36.43061, 42.91965, 52.16781, 28.20434, -0.71946, 2.59891, 9.63786, 0.00746, 0.08047, 0.03531
134, 6119, 36.43061, 42.91965, 52.16781, 28.20434, -0.73143, 2.73059, 9.63666, 0.00853, 0.08007, 0.03384
135, 6159, 36.43061, 42.91965, 52.16781, 28.20434, -0.79128, 2.69587, 9.54568, 0.00919, 0.08047, 0.03424
136, 6202, 36.43061, 42.91965, 52.16781, 28.20434, -0.90740, 2.93649, 10.39802, -0.01066, 0.08540, 0.03344
137, 6242, 36.43061, 42.91965, 52.16781, 28.20434, -0.70868, 2.62405, 9.81982, 0.00107, 0.09566, 0.02971
138, 6282, 36.43061, 42.91965, 52.16781, 28.20434, -0.73023, 2.61447, 9.54808, 0.00413, 0.08434, 0.03304
139, 6322, 36.43061, 42.91965, 52.16781, 28.20434, -0.72185, 2.66834, 9.49301, 0.00946, 0.08327, 0.03344
140, 6362, 36.43061, 42.91965, 52.16781, 28.20434, -0.69073, 2.67313, 9.56364, 0.00626, 0.07981, 0.03411
141, 6405, 36.48170, 42.91965, 52.16781, 28.20434, -0.68833, 2.64559, 9.63307, 0.00839, 0.08167, 0.03291
142, 6445, 36.48170, 42.91965, 52.16781, 28.20434, -0.77452, 2.66594, 9.64863, 0.00706, 0.08074, 0.03357
143, 6485, 36.48170, 42.91965, 52.16781, 28.20434, -0.70030, 2.69587, 9.64265, 0.00679, 0.07834, 0.03451
144, 6525, 36.48170, 42.91965, 52.16781, 28.20434, -0.70390, 2.69108, 9.65342, 0.00919, 0.07914, 0.03198
145, 6565, 36.48170, 42.91965, 52.16781, 28.20434, -0.69791, 2.64918, 9.70370, 0.00799, 0.07887, 0.03464
146, 6608, 36.48170, 42.91965, 52.16781, 28.25543, -0.74340, 2.66594, 9.59117, 0.00693, 0.08060, 0.03357
147, 6648, 36.48170, 42.91965, 52.16781, 28.20434, -0.75178, 2.62764, 9.62589, 0.00719, 0.07834, 0.03397
148, 6688, 36.48170, 42.91965, 52.16781, 28.20434, -0.70749, 2.69348, 9.59596, 0.00906, 0.07807, 0.03397
149, 6728, 36.48170, 42.91965, 52.16781, 28.20434, -0.63925, 2.61567, 9.60434, 0.00759, 0.07887, 0.03557
150, 6771, 36.48170, 42.91965, 52.16781, 28.20434, -0.73981, 2.66235, 9.63906, 0.00853, 0.08074, 0.03371
151, 6811, 36.48170, 42.91965, 52.16781, 28.20434, -0.71467, 2.71383, 9.68574, 0.00933, 0.08060, 0.03238
152, 6851, 36.48170, 42.91965, 52.16781, 28.20434, -0.71228, 2.80720, 9.19613, 0.00226, 0.06462, 0.03637
153, 6891, 36.48170, 42.91965, 52.16781, 28.20434, -1.30604, 1.99796, 8.33541, 0.19598, -0.04303, 0.02585
154, 6931, 36.43061, 42.91965, 52.16781, 28.20434, 0.13527, 2.14401, 8.07085, 0.11511, 0.04064, 0.03810
155, 6983, 36.43061, 42.91965, 52.16781, 28.20434, -0.66319, 2.64320, 9.46308, 0.01319, 0.08700, 0.03131
156, 7024, 36.48170, 42.91965, 52.16781, 28.20434, -0.85114, 2.57736, 9.62110, -0.00613, 0.08287, 0.03264
157, 7065, 36.43061, 42.91965, 52.16781, 28.20434, -0.77452, 2.75213, 9.76834, 0.00386, 0.07621, 0.03451
158, 7106, 36.43061, 42.91965, 52.16781, 28.20434, -0.92536, 2.29125, 8.67539, -0.01879, 0.07554, 0.03517
159, 7147, 36.43061, 42.91965, 52.16781, 28.20434, -0.83917, 2.88022, 9.32901, -0.02491, 0.06542, 0.02305
160, 7191, 36.43061, 42.91965, 52.16781, 28.20434, -0.36512, 2.61926, 10.12747, -0.59581, 0.42394, -0.11711
161, 7232, 36.43061, 42.91965, 52.16781, 28.20434, -0.98881, 2.35829, 9.44273, 0.00959, 0.05249, 0.02838
162, 7273, 36.43061, 42.91965, 46.59847, 28.15324, -0.76495, 2.90656, 9.70490, 0.02118, 0.04277, 0.04197
163, 7314, 36.43061, 42.91965, 45.93424, 28.15324, -0.73741, 2.63721, 9.49301, 0.05622, 0.07408, 0.04583
164, 7355, 36.43061, 42.91965, 52.16781, 28.20434, -0.74101, 2.57257, 9.44153, 0.04357, 0.07341, 0.05196
165, 7399, 36.43061, 42.91965, 52.16781, 28.20434, -0.74460, 2.57736, 9.60554, 0.00493, 0.08620, 0.03371
166, 7440, 36.43061, 42.91965, 52.16781, 28.20434, -0.75776, 2.59651, 9.63307, 0.01013, 0.07181, 0.03704
167, 7481, 36.43061, 42.91965, 52.16781, 28.20434, -0.76734, 2.59412, 9.50259, 0.01239, 0.07847, 0.03451
168, 7522, 36.43061, 42.91965, 52.16781, 28.20434, -0.75896, 2.58095, 9.75278, 0.00999, 0.06888, 0.03824
169, 7563, 36.43061, 42.91965, 52.16781, 28.20434, -0.69312, 2.78206, 9.78510, 0.01772, 0.07914, 0.03491
170, 7607, 36.43061, 42.91965, 52.16781, 28.20434, -0.80804, 2.60968, 9.56484, 0.00493, 0.07621, 0.03118
171, 7648, 36.43061, 42.91965, 52.16781, 28.20434, -0.72425, 2.64559, 9.60793, 0.00933, 0.07794, 0.03357
172, 7689, 36.43061, 42.91965, 52.16781, 28.20434, -0.77572, 2.59771, 9.64624, 0.00773, 0.08047, 0.03211
173, 7730, 36.43061, 42.91965, 52.16781, 28.20434, -0.84396, 2.63242, 9.74799, 0.01346, 0.08593, 0.03238
174, 7774, 36.43061, 42.91965, 52.16781, 28.20434, -0.65481, 2.65637, 9.77672, 0.00120, 0.08966, 0.03091
175, 7815, 36.43061, 42.91965, 52.16781, 28.20434, -0.93374, 2.16077, 9.29190, 0.00653, 0.08327, 0.03104
176, 7856, 36.43061, 42.91965, 52.16781, 28.20434, -0.78530, 2.62165, 9.73842, 0.01319, 0.07421, 0.03491
177, 7897, 36.43061, 42.91965, 52.16781, 28.20434, -0.71108, 2.63123, 9.65103, 0.01359, 0.07847, 0.03464
178, 7938, 36.43061, 42.91965, 52.16781, 28.20434, -0.78290, 2.60968, 9.68215, 0.00959, 0.07887, 0.03317
179, 7982, 36.43061, 42.91965, 52.16781, 28.20434, -0.71706, 2.61567, 9.58878, 0.00906, 0.07807, 0.03357
180, 8023, 36.43061, 42.91965, 52.16781, 28.20434, -0.74460, 2.60609, 9.57920, 0.00786, 0.08060, 0.03198
181, 8064, 36.43061, 42.91965, 52.16781, 28.20434, -0.80924, 2.64440, 9.68095, 0.00759, 0.08300, 0.03171
182, 8105, 36.43061, 42.91965, 52.16781, 28.20434, -0.74579, 2.61447, 9.73482, 0.01359, 0.08194, 0.03357
183, 8146, 36.43061, 42.91965, 52.16781, 28.20434, -0.76255, 2.67193, 9.30866, 0.00586, 0.07341, 0.03317
184, 8190, 36.43061, 42.91965, 52.16781, 28.20434, -0.82480, 2.58933, 9.65941, 0.01159, 0.08434, 0.03411
185, 8231, 36.43061, 42.91965, 52.16781, 28.20434, -0.79607, 2.70904, 9.58040, 0.00959, 0.08420, 0.03091
186, 8272, 36.43061, 42.91965, 52.16781, 28.20434, -0.75657, 2.56898, 9.39724, 0.00333, 0.07594, 0.03491
187, 8313, 36.43061, 42.91965, 52.16781, 28.20434, -0.73741, 2.55820, 9.55287, 0.00946, 0.08154, 0.03384
188, 8354, 36.43061, 42.91965, 52.16781, 28.20434, -0.76614, 2.60369, 9.77193, 0.00919, 0.07914, 0.03464
189, 8398, 36.43061, 42.91965, 52.16781, 28.20434, -0.70868, 2.70186, 9.80665, 0.01239, 0.07914, 0.03504
190, 8439, 36.43061, 42.91965, 52.16781, 28.20434, -0.74819, 2.64918, 9.66060, 0.01146, 0.07661, 0.03371
191, 8480, 36.43061, 42.91965, 52.16781, 28.20434, -0.78889, 2.61567, 9.66180, 0.00799, 0.07781, 0.03411
192, 8521, 36.43061, 42.91965, 52.16781, 28.20434, -0.75776, 2.61926, 9.59955, 0.00799, 0.07941, 0.03344
193, 8562, 36.43061, 42.91965, 52.16781, 28.20434, -0.75776, 2.62165, 9.61751, 0.00946, 0.07927, 0.03411
194, 8616, 36.43061, 42.91965, 52.16781, 28.20434, -0.76375, 2.63721, 9.65462, 0.00866, 0.07981, 0.03304
195, 8657, 36.43061, 42.91965, 52.16781, 28.20434, -0.78650, 2.62524, 9.59835, 0.00733, 0.08167, 0.03424
196, 8698, 36.43061, 42.91965, 52.16781, 28.20434, -0.69552, 2.60010, 9.73004, 0.00706, 0.08047, 0.03504
197, 8747, 36.43061, 42.91965, 52.16781, 28.20434, -0.78769, 2.58574, 9.65941, 0.00999, 0.07954, 0.03424
198, 8788, 36.43061, 42.91965, 52.16781, 28.20434, -0.73981, 2.58454, 9.65462, 0.00906, 0.07927, 0.03224
199, 8832, 36.43061, 42.91965, 52.16781, 28.20434, -0.77213, 2.66116, 9.61033, 0.00786, 0.07994, 0.03224
200, 8873, 36.43061, 42.91965, 52.16781, 28.20434, -0.83677, 2.68749, 9.65462, 0.00626, 0.08034, 0.03491
201, 8914, 36.43061, 42.91965, 52.16781, 28.20434, -0.78769, 2.60250, 9.56962, 0.00986, 0.07887, 0.03557
202, 8955, 36.43061, 42.91965, 52.16781, 28.20434, -0.85114, 2.56419, 9.85453, 0.00160, 0.08487, 0.03091
203, 8999, 36.43061, 42.91965, 52.16781, 28.20434, -0.81523, 2.60729, 9.84496, 0.01319, 0.07834, 0.03331
204, 9040, 36.43061, 42.91965, 52.16781, 28.20434, -0.75537, 2.58813, 9.68694, 0.00973, 0.08034, 0.03371
205, 9081, 36.43061, 42.91965, 52.16781, 28.20434, -0.84635, 2.60010, 9.60793, 0.01159, 0.07621, 0.03557
206, 9122, 36.43061, 42.91965, 52.16781, 28.20434, -0.75896, 2.58694, 9.61871, 0.00586, 0.08060, 0.03317
207, 9163, 36.43061, 42.91965, 52.16781, 28.20434, -0.76854, 2.62045, 9.68694, 0.00893, 0.07941, 0.03304
208, 9207, 36.43061, 42.91965, 52.16781, 28.20434, -0.79009, 2.71143, 9.57082, 0.00946, 0.07901, 0.03277
209, 9248, 36.43061, 42.91965, 52.16781, 28.20434, -0.78530, 2.61926, 9.60673, 0.00440, 0.08314, 0.03011
210, 9289, 36.43061, 42.91965, 52.16781, 28.20434, -0.76614, 2.59651, 9.58399, 0.00306, 0.08207, 0.03224
211, 9330, 36.43061, 42.91965, 52.16781, 28.20434, -0.75896, 2.60848, 9.75517, 0.00693, 0.07741, 0.03411
212, 9371, 36.43061, 42.91965, 52.16781, 28.20434, -0.76136, 2.61327, 9.65701, 0.00600, 0.08074, 0.03331
213, 9415, 36.43061, 42.91965, 52.16781, 28.20434, -0.82241, 2.61447, 9.69532, 0.01159, 0.08114, 0.03464
214, 9456, 36.43061, 42.91965, 52.16781, 28.20434, -0.74699, 2.60250, 9.59955, 0.00453, 0.07981, 0.03251
215, 9497, 36.43061, 42.91965, 52.16781, 28.20434, -0.75178, 2.65038, 9.58878, 0.00666, 0.07861, 0.03371
216, 9538, 36.43061, 42.91965, 52.16781, 28.20434, -0.76495, 2.58215, 9.56843, 0.00413, 0.07794, 0.03584
217, 9579, 36.43061, 42.91965, 52.16781, 28.20434, -0.76734, 2.63123, 9.61392, 0.01119, 0.07847, 0.03424
218, 9623, 36.43061, 42.91965, 52.16781, 28.20434, -0.78650, 2.61567, 9.69532, 0.00560, 0.07994, 0.03491
219, 9664, 36.43061, 42.91965, 52.16781, 28.20434, -0.78650, 2.58334, 9.63307, 0.00466, 0.08047, 0.03411
220, 9705, 36.43061, 42.91965, 52.16781, 28.20434, -0.77452, 2.62524, 9.55406, 0.00946, 0.08021, 0.03224
221, 9746, 36.43061, 42.91965, 52.16781, 28.20434, -0.78410, 2.49835, 9.76475, 0.00600, 0.08380, 0.03291
222, 9787, 36.43061, 42.91965, 52.16781, 28.20434, -0.70629, 2.64799, 9.59596, 0.00506, 0.07821, 0.03317
223, 9831, 36.43061, 42.91965, 52.16781, 28.20434, -0.78530, 2.74854, 9.58399, 0.00440, 0.08154, 0.03211
224, 9872, 36.43061, 42.91965, 52.16781, 28.20434, -0.84036, 2.61447, 9.78271, -0.00093, 0.08447, 0.03011
225, 9913, 36.43061, 42.91965, 52.16781, 28.20434, -0.73143, 2.48398, 9.54568, 0.00373, 0.08034, 0.03211
226, 9954, 36.43061, 42.91965, 52.16781, 28.20434, -0.74220, 2.60609, 9.69053, 0.00946, 0.08234, 0.03544
227, 9995, 36.43061, 42.91965, 52.16781, 28.20434, -0.75776, 2.61926, 9.63068, 0.00733, 0.08220, 0.03451
228, 10039, 36.43061, 42.91965, 52.16781, 28.20434, -0.77213, 2.62524, 9.52294, 0.00373, 0.08007, 0.03131
229, 10080, 36.43061, 42.91965, 52.16781, 28.20434, -0.77213, 2.62285, 9.61990, 0.00866, 0.07861, 0.03424
230, 10121, 36.43061, 42.91965, 52.16781, 28.20434, -0.77692, 2.71862, 9.55167, 0.00879, 0.07741, 0.03504
231, 10162, 36.43061, 42.91965, 52.16781, 28.20434, -0.73981, 2.61567, 9.49780, 0.01372, 0.08220, 0.03264
232, 10216, 36.43061, 42.91965, 52.16781, 28.20434, -0.82001, 2.54863, 9.61751, -0.01945, 0.08154, 0.02292
233, 10255, 36.43061, 42.91965, 52.16781, 28.20434, -1.91416, 0.52313, 9.52054, -0.12604, 0.07994, -0.33534
234, 10295, 36.43061, 42.91965, 52.16781, 28.20434, -0.82600, 3.19746, 10.32140, 0.10272, 0.00320, -0.37998
235, 10335, 36.43061, 42.91965, 52.16781, 28.20434, -0.96367, 2.63602, 10.07241, 0.45512, -0.12790, -0.09766
236, 10375, 36.43061, 42.91965, 52.16781, 28.20434, -0.77572, 2.59651, 9.96706, -0.07461, 0.13603, 0.03078
237, 10418, 36.43061, 42.91965, 52.16781, 28.20434, -0.32681, 3.03465, 9.62589, -0.32135, 0.27073, 0.19545
238, 10458, 36.43061, 42.91965, 52.16781, 28.20434, -1.16119, 2.12485, 9.37330, -0.05662, 0.14096, 0.08913
239, 10498, 36.43061, 42.91965, 52.16781, 28.20434, -0.55905, 2.61686, 9.83059, 0.08993, 0.05036, 0.14775
240, 10538, 36.43061, 42.91965, 52.16781, 28.20434, -0.77452, 2.65756, 9.50737, 0.00293, 0.08607, 0.06835
241, 10578, 36.43061, 42.91965, 52.16781, 28.20434, -0.64763, 2.70784, 9.93354, 0.00533, 0.08487, 0.05449
242, 10621, 36.43061, 42.91965, 52.16781, 28.20434, -0.80565, 2.66475, 9.90122, 0.04024, 0.08820, 0.05556
243, 10661, 36.43061, 42.91965, 52.16781, 28.20434, -0.76614, 2.65876, 9.75517, 0.01359, 0.07687, 0.03944
244, 10701, 36.43061, 42.91965, 52.16781, 28.20434, -0.76734, 2.67552, 9.84615, 0.00586, 0.08140, 0.03411
245, 10741, 36.43061, 42.91965, 52.16781, 28.20434, -0.73861, 2.54982, 9.53371, 0.00480, 0.08354, 0.03464
246, 10781, 36.43061, 42.91965, 52.16781, 28.20434, -0.65122, 2.52588, 9.61152, 0.00799, 0.07714, 0.03277
247, 10824, 36.43061, 42.91965, 52.16781, 28.20434, -0.69073, 2.77488, 9.58998, -0.00253, 0.07914, 0.03504
248, 10864, 36.43061, 42.91965, 52.16781, 28.20434, -0.78769, 2.20745, 9.20571, -0.03451, 0.09473, 0.00280
249, 10904, 36.43061, 42.91965, 52.16781, 28.20434, -0.69552, 2.57975, 9.64744, -0.01239, 0.09593, 0.02825
250, 10944, 36.43061, 42.91965, 52.16781, 28.20434, -1.16598, 1.64123, 9.37091, -0.07021, 0.11365, 0.01452
251, 10987, 36.43061, 42.91965, 52.16781, 28.20434, -0.71946, 2.61567, 9.74919, 0.01985, 0.07714, 0.03824
252, 11027, 36.43061, 42.91965, 52.16781, 28.20434, -0.80924, 2.62764, 9.73123, -0.02158, 0.09939, 0.04237
253, 11067, 36.43061, 42.91965, 52.16781, 28.20434, -0.75178, 2.65637, 9.91559, 0.01412, 0.07767, 0.04463
254, 11107, 36.43061, 42.91965, 52.16781, 28.20434, -0.74220, 2.63362, 9.55765, 0.00533, 0.09260, 0.04024
255, 11147, 36.43061, 42.91965, 52.16781, 28.20434, -0.71946, 2.60489, 9.60434, -0.00759, 0.08620, 0.03131
256, 11190, 36.43061, 42.91965, 52.16781, 28.20434, -0.74340, 2.52947, 9.74679, 0.06448, 0.04970, 0.06302
257, 11230, 36.43061, 42.91965, 52.16781, 28.20434, -0.76375, 2.62405, 9.61152, 0.02185, 0.07661, 0.04090
258, 11270, 36.43061, 42.91965, 52.16781, 28.20434, -0.75058, 2.68031, 9.67497, 0.02358, 0.07448, 0.05236
259, 11310, 36.43061, 42.91965, 52.16781, 28.20434, -0.79847, 2.66834, 9.55885, 0.01426, 0.07621, 0.04223
260, 11350, 36.43061, 42.91965, 52.16781, 28.20434, -0.80325, 2.62764, 9.61152, 0.01092, 0.08207, 0.03837
261, 11393, 36.43061, 42.91965, 52.16781, 28.20434, -0.76614, 2.63482, 9.73722, 0.01812, 0.07887, 0.04783
262, 11433, 36.43061, 42.91965, 52.16781, 28.20434, -0.73382, 2.68151, 9.69771, 0.00959, 0.08047, 0.03424
263, 11473, 36.43061, 42.91965, 52.16781, 28.20434, -0.76974, 2.62165, 9.63906, 0.01013, 0.08220, 0.03704
264, 11513, 36.43061, 42.91965, 52.16781, 28.20434, -0.75896, 2.61447, 9.54329, 0.00773, 0.08047, 0.03277
265, 11553, 36.43061, 42.91965, 52.16781, 28.20434, -0.72664, 2.63602, 9.60913, 0.00853, 0.07781, 0.03384
266, 11596, 36.43061, 42.91965, 52.16781, 28.20434, -0.73981, 2.67552, 9.78750, 0.01079, 0.08540, 0.03611
267, 11636, 36.43061, 42.91965, 52.16781, 28.20434, -0.78769, 2.65876, 9.73004, 0.01119, 0.08140, 0.03597
268, 11676, 36.43061, 42.91965, 52.16781, 28.20434, -0.76016, 2.70305, 9.61033, 0.00706, 0.07448, 0.03531
269, 11716, 36.43061, 42.91965, 52.16781, 28.20434, -0.77692, 2.60729, 9.60673, 0.00799, 0.07727, 0.03597
270, 11768, 36.43061, 42.91965, 52.16781, 28.20434, -0.73143, 2.61806, 9.67257, 0.00147, 0.07981, 0.03304
271, 11809, 36.43061, 42.91965, 52.16781, 28.20434, -0.77931, 2.65756, 9.63187, 0.00999, 0.07954, 0.03477
272, 11850, 36.43061, 42.91965, 52.16781, 28.20434, -0.72664, 2.65637, 9.66420, 0.01279, 0.07874, 0.03504
273, 11891, 36.43061, 42.91965, 52.16781, 28.20434, -0.73622, 2.65876, 9.64744, 0.00893, 0.08047, 0.03451
274, 11932, 36.43061, 42.91965, 52.16781, 28.20434, -0.77931, 2.66116, 9.65701, 0.00613, 0.08114, 0.03317
275, 11976, 36.43061, 42.91965, 52.16781, 28.20434, -0.76734, 2.65876, 9.63666, 0.00839, 0.08034, 0.03504
276, 12017, 36.43061, 42.91965, 52.16781, 28.20434, -0.81762, 2.78206, 9.52413, 0.01359, 0.07914, 0.03464
277, 12058, 36.43061, 42.91965, 52.16781, 28.20434, -0.74939, 2.63602, 9.56962, 0.00853, 0.08154, 0.03317
278, 12099, 36.43061, 42.91965, 52.16781, 28.20434, -0.78051, 2.65517, 9.56005, 0.01252, 0.07821, 0.03451
279, 12140, 36.43061, 42.91965, 52.16781, 28.20434, -0.77452, 2.65876, 9.64384, 0.00653, 0.07954, 0.03158
280, 12184, 36.43061, 42.91965, 52.16781, 28.20434, -0.75657, 2.61806, 9.57322, -0.00253, 0.08260, 0.03171
281, 12225, 36.43061, 42.91965, 52.16781, 28.20434, -0.73981, 2.60369, 9.65462, 0.01292, 0.08340, 0.03277
282, 12266, 36.43061, 42.91965, 52.16781, 28.20434, -0.80445, 2.68869, 9.60793, 0.01079, 0.07767, 0.03757
283, 12307, 36.43061, 42.91965, 52.16781, 28.20434, -0.77093, 2.65996, 9.64624, 0.00506, 0.08314, 0.03384
284, 12348, 36.43061, 42.91965, 52.16781, 28.20434, -0.74340, 2.67313, 9.54808, 0.00839, 0.07954, 0.03384
285, 12392, 36.43061, 42.91965, 52.16781, 28.20434, -0.86670, 2.73657, 9.88207, 0.00027, 0.09073, 0.02958
286, 12433, 36.43061, 42.91965, 52.16781, 28.20434, -0.80924, 2.59053, 9.63427, 0.00626, 0.08847, 0.03144
287, 12474, 36.43061, 42.91965, 52.16781, 28.20434, -0.71347, 2.72580, 9.61751, 0.01026, 0.08260, 0.03344
288, 12515, 36.43061, 42.91965, 52.16781, 28.20434, -0.81762, 2.60848, 9.72525, 0.02665, 0.07727, 0.03810
289, 12556, 36.43061, 42.91965, 52.16781, 28.20434, -0.79727, 2.65158, 9.62349, -0.00013, 0.08740, 0.03038
290, 12600, 36.43061, 42.91965, 52.16781, 28.20434, -0.79009, 2.64679, 9.66659, 0.01186, 0.07967, 0.03491
291, 12641, 36.43061, 42.91965, 52.16781, 28.20434, -0.71347, 2.79284, 10.16698, -0.00533, 0.08100, 0.03331
292, 12682, 36.43061, 42.91965, 52.16781, 28.20434, -0.78051, 2.71742, 9.77433, -0.01119, 0.08780, 0.03011
293, 12723, 36.43061, 42.91965, 52.16781, 28.20434, -0.73502, 2.68151, 9.57322, -0.00373, 0.08100, 0.03184
294, 12767, 36.43061, 42.91965, 52.16781, 28.20434, -0.83438, 2.64320, 9.62589, 0.00240, 0.08034, 0.03384
295, 12808, 36.43061, 42.91965, 52.16781, 28.20434, -0.69791, 2.63721, 9.60195, -0.00027, 0.07847, 0.03357
296, 12849, 36.43061, 42.91965, 52.16781, 28.20434, -0.74579, 2.67552, 9.56723, 0.00813, 0.07621, 0.03477
297, 12890, 36.43061, 42.91965, 52.16781, 28.20434, -0.76255, 2.63961, 9.54449, 0.00759, 0.08260, 0.03304
298, 12931, 36.43061, 42.91965, 52.16781, 28.20434, -0.72544, 2.65397, 9.66300, 0.00613, 0.08087, 0.03331
299, 12975, 36.43061, 42.91965, 52.16781, 28.20434, -0.71228, 2.63602, 9.70609, 0.00520, 0.08394, 0.03158
300, 13016, 36.43061, 42.91965, 52.16781, 28.20434, -0.78650, 2.60609, 9.66420, 0.00560, 0.07767, 0.03357
301, 13057, 36.43061, 42.91965, 52.16781, 28.20434, -0.76375, 2.63482, 9.64265, 0.01053, 0.07714, 0.03557
302, 13098, 36.43061, 42.91965, 52.16781, 28.20434, -0.73143, 2.64918, 9.61511, 0.00640, 0.07861, 0.03238
303, 13139, 36.43061, 42.91965, 52.16781, 28.20434, -0.76614, 2.64799, 9.61751, 0.00733, 0.07874, 0.03264
304, 13183, 36.43061, 42.91965, 52.16781, 28.20434, -0.77931, 2.65637, 9.62589, 0.00173, 0.08354, 0.02904
305, 13224, 36.43061, 42.91965, 52.16781, 28.20434, -0.72425, 2.61088, 9.64624, 0.00067, 0.08513, 0.03198
306, 13265, 36.43061, 42.91965, 52.16781, 28.20434, -0.72305, 2.62764, 9.62110, 0.00067, 0.08394, 0.03118
307, 13306, 36.43061, 42.91965, 52.16781, 28.20434, -0.76854, 2.58933, 9.68574, 0.00333, 0.08513, 0.03078
308, 13347, 36.43061, 42.91965, 52.16781, 28.20434, -0.82241, 2.59531, 9.57681, 0.00253, 0.08194, 0.03078
309, 13401, 36.43061, 42.91965, 52.16781, 28.20434, -0.84396, 2.61327, 9.59716, 0.00786, 0.08140, 0.03357
310, 13450, 36.43061, 42.91965, 52.16781, 28.20434, -0.79128, 2.66475, 9.52653, 0.01292, 0.08180, 0.03131
311, 13491, 36.43061, 42.91965, 52.16781, 28.20434, -0.87508, 2.71862, 9.57800, 0.02238, 0.08300, 0.03437
312, 13532, 36.43061, 42.91965, 52.16781, 28.20434, -0.79847, 2.73298, 9.71926, 0.00946, 0.08660, 0.03064
313, 13576, 36.43061, 42.91965, 52.16781, 28.20434, -0.79487, 2.65517, 9.59357, 0.00973, 0.08474, 0.03464
314, 13617, 36.43061, 42.91965, 52.16781, 28.20434, -0.78171, 2.61686, 9.57800, -0.00320, 0.08420, 0.02891
315, 13658, 36.43061, 42.91965, 52.16781, 28.20434, -0.77572, 2.63841, 9.64744, 0.00866, 0.07914, 0.03517
316, 13699, 36.43061, 42.91965, 52.16781, 28.20434, -0.74220, 2.66714, 9.56962, 0.01039, 0.07901, 0.03264
317, 13740, 36.43061, 42.91965, 52.16781, 28.20434, -0.79009, 2.63602, 9.64983, 0.00613, 0.08034, 0.03397
318, 13784, 36.43061, 42.91965, 52.16781, 28.20434, -0.80804, 2.85987, 9.87369, 0.01066, 0.08234, 0.03171
319, 13825, 36.43061, 42.91965, 52.16781, 28.20434, -0.80086, 2.65756, 9.62230, 0.00853, 0.06875, 0.03757
320, 13866, 36.43061, 42.91965, 52.16781, 28.20434, -0.77213, 2.55342, 9.42358, 0.01266, 0.07568, 0.03384
321, 13907, 36.43061, 42.91965, 52.16781, 28.20434, -0.77213, 2.54982, 9.61871, 0.00973, 0.07754, 0.03331
322, 13948, 36.43061, 42.91965, 52.16781, 28.20434, -0.78650, 2.63362, 9.64504, 0.01199, 0.08207, 0.03531
323, 13992, 36.43061, 42.91965, 52.16781, 28.20434, -0.80445, 2.64080, 9.51815, 0.00640, 0.07807, 0.03397
324, 14033, 36.43061, 42.91965, 52.16781, 28.20434, -0.69791, 2.67073, 9.68335, 0.00746, 0.07847, 0.03238
325, 14074, 36.43061, 42.91965, 52.16781, 28.20434, -0.80804, 2.67672, 9.74560, 0.00573, 0.07941, 0.03277
326, 14115, 36.48170, 42.91965, 52.16781, 28.20434, -0.83079, 2.78446, 9.72884, 0.01732, 0.09286, 0.03171
327, 14156, 36.48170, 42.91965, 52.16781, 28.20434, -0.79248, 2.60609, 9.64265, 0.01013, 0.08167, 0.03104
328, 14200, 36.48170, 42.91965, 52.16781, 28.20434, -0.82001, 2.73178, 9.58279, 0.00839, 0.07807, 0.03571
329, 14241, 36.48170, 42.91965, 52.16781, 28.20434, -0.79966, 2.65158, 9.59835, 0.00719, 0.07994, 0.03411
330, 14282, 36.48170, 42.91965, 52.16781, 28.20434, -0.76016, 2.62165, 9.61990, 0.00719, 0.08500, 0.03331
331, 14323, 36.48170, 42.91965, 52.16781, 28.20434, -0.80445, 2.64918, 9.72405, 0.00986, 0.08540, 0.02385
332, 14364, 36.48170, 42.91965, 52.16781, 28.20434, -0.83318, 2.50912, 9.24162, -0.00906, 0.09206, 0.02345
333, 14408, 36.48170, 42.91965, 52.16781, 28.20434, -0.58299, 2.72819, 9.88326, -0.01919, 0.09699, 0.03264
334, 14449, 36.48170, 42.91965, 52.16781, 28.20434, -0.80206, 2.55342, 9.67018, 0.01039, 0.08287, 0.03317
335, 14490, 36.48170, 42.91965, 52.16781, 28.20434, -0.77213, 2.59292, 9.79827, 0.01266, 0.08314, 0.02225
336, 14531, 36.48170, 42.91965, 52.16781, 28.20434, -0.79248, 2.62405, 9.58519, 0.01039, 0.08140, 0.02518
337, 14575, 36.48170, 42.91965, 52.16781, 28.20434, -0.75896, 2.62883, 9.61990, 0.00586, 0.07941, 0.03238
338, 14616, 36.48170, 42.91965, 52.16781, 28.20434, -0.81523, 2.55581, 9.78510, 0.01226, 0.07941, 0.03238
339, 14657, 36.48170, 42.91965, 52.16781, 28.25543, -0.68354, 2.75333, 9.46308, 0.00240, 0.08700, 0.03704
340, 14698, 36.48170, 42.91965, 52.16781, 28.20434, -0.76375, 2.71024, 9.57920, 0.00853, 0.07634, 0.03504
341, 14739, 36.48170, 42.91965, 52.16781, 28.20434, -0.68833, 2.64918, 9.53491, 0.01985, 0.06795, 0.03477
342, 14783, 36.48170, 42.91965, 52.16781, 28.20434, -0.82001, 2.42772, 9.46428, 0.00799, 0.06808, 0.03571
343, 14824, 36.48170, 42.91965, 52.16781, 28.20434, -0.73023, 2.80481, 9.69652, 0.01439, 0.07674, 0.03437
344, 14865, 36.48170, 42.91965, 52.16781, 28.20434, -0.76136, 2.70305, 9.67377, 0.02118, 0.07368, 0.03411
345, 14906, 36.48170, 42.91965, 52.16781, 28.20434, -0.73502, 2.67432, 9.58519, 0.00693, 0.07794, 0.03637
346, 14947, 36.48170, 42.91965, 52.16781, 28.20434, -0.84635, 2.66475, 9.73482, 0.03078, 0.06462, 0.02025
347, 15001, 36.48170, 42.91965, 52.16781, 28.20434, -0.81163, 2.68031, 9.55646, 0.00386, 0.08513, 0.02012
348, 15040, 36.48170, 42.91965, 52.16781, 28.20434, -0.78290, 2.60489, 9.86291, 0.00959, 0.07368, 0.02145
349, 15080, 36.48170, 42.91965, 52.16781, 28.25543, -0.70988, 2.65876, 9.44393, 0.02531, 0.06648, 0.02305
350, 15120, 36.48170, 42.91965, 52.16781, 28.20434, -0.79248, 2.68151, 9.66898, 0.00733, 0.07727, 0.03251
351, 15160, 36.48170, 42.91965, 52.16781, 28.20434, -0.68833, 2.71742, 9.61990, -0.00386, 0.08926, 0.03837
352, 15203, 36.48170, 42.91965, 52.16781, 28.20434, -0.64643, 2.86347, 9.73123, -0.04157, 0.11698, 0.03277
353, 15243, 36.48170, 42.91965, 52.16781, 28.20434, -0.63207, 2.67313, 9.80665, -0.04570, 0.12297, 0.03277
354, 15283, 36.48170, 42.91965, 52.16781, 28.20434, -0.77452, 2.50912, 9.46907, -0.05343, 0.11445, 0.02998
355, 15323, 36.48170, 42.91965, 52.16781, 28.20434, -0.82241, 2.47201, 9.37091, -0.02358, 0.09526, 0.03024
356, 15366, 36.48170, 42.91965, 52.16781, 28.20434, -0.77812, 2.74974, 9.52054, 0.03877, 0.04996, 0.00280
357, 15406, 36.48170, 42.91965, 52.16781, 28.20434, -0.83917, 2.44328, 9.67856, 0.10419, 0.02864, 0.00200
358, 15446, 36.48170, 42.91965, 52.16781, 28.20434, -0.74340, 2.85748, 9.62469, 0.03304, 0.07021, 0.04197
359, 15486, 36.48170, 42.91965, 52.16781, 28.20434, -0.74460, 2.58454, 9.56962, 0.01532, 0.08047, 0.04796
360, 15526, 36.48170, 42.91965, 52.16781, 28.20434, -0.69432, 2.73418, 9.46548, 0.01932, 0.07727, 0.03930
361, 15569, 36.48170, 42.91965, 52.16781, 28.20434, -0.73622, 2.71981, 9.67497, 0.00506, 0.08700, 0.03277
362, 15609, 36.48170, 42.91965, 52.16781, 28.20434, -0.76375, 2.68629, 9.59237, 0.00813, 0.08234, 0.03597
363, 15649, 36.48170, 42.91965, 52.16781, 28.20434, -0.80445, 2.67073, 9.58399, 0.00400, 0.08300, 0.03651
364, 15689, 36.48170, 42.91965, 52.16781, 28.20434, -0.74579, 2.57736, 9.53491, 0.00773, 0.08194, 0.03611
365, 15729, 36.48170, 42.91965, 52.16781, 28.20434, -0.73023, 2.70305, 9.70849, 0.01319, 0.07901, 0.03970
366, 15772, 36.48170, 42.91965, 52.16781, 28.20434, -0.73382, 2.71862, 9.52174, 0.00946, 0.07807, 0.03637
367, 15812, 36.48170, 42.91965, 52.16781, 28.20434, -0.75417, 2.60848, 9.60554, 0.00640, 0.08047, 0.03624
368, 15852, 36.48170, 42.91965, 52.16781, 28.20434, -0.77931, 2.67313, 9.61751, 0.00640, 0.08167, 0.03331
369, 15892, 36.48170, 42.91965, 52.16781, 28.20434, -0.75657, 2.60010, 9.58878, 0.00546, 0.07861, 0.03437
370, 15932, 36.48170, 42.91965, 52.16781, 28.20434, -0.73622, 2.67791, 9.60075, 0.00653, 0.07927, 0.03357
371, 15975, 36.48170, 42.91965, 52.16781, 28.20434, -0.70629, 2.66116, 9.62708, 0.01239, 0.07994, 0.03717
372, 16015, 36.48170, 42.91965, 52.16781, 28.20434, -0.82361, 2.57975, 9.62110, 0.00546, 0.08900, 0.02998
373, 16055, 36.48170, 42.91965, 52.16781, 28.20434, -0.78769, 2.61926, 9.65582, 0.00520, 0.08114, 0.03411
374, 16095, 36.48170, 42.91965, 52.16781, 28.20434, -0.76734, 2.63123, 9.65941, 0.00346, 0.08380, 0.03291
375, 16135, 36.48170, 42.91965, 52.16781, 28.20434, -0.79847, 2.65637, 9.58279, -0.02278, 0.10419, 0.04370
376, 16178, 36.48170, 42.91965, 52.16781, 28.20434, -0.79966, 2.72700, 9.59835, 0.00226, 0.08327, 0.03504
377, 16218, 36.48170, 42.91965, 52.16781, 28.20434, -0.82121, 2.60369, 9.85094, 0.01039, 0.07075, 0.03464
378, 16258, 36.48170, 42.91965, 52.16781, 28.20434, -0.76974, 2.64320, 9.59237, 0.00893, 0.08060, 0.03371
379, 16298, 36.48170, 42.91965, 52.16781, 28.20434, -0.79128, 2.64200, 9.64744, 0.01972, 0.07421, 0.03491
380, 16341, 36.48170, 42.91965, 52.16781, 28.20434, -0.74819, 2.64918, 9.62349, 0.01172, 0.07834, 0.03384
381, 16381, 36.48170, 42.91965, 52.16781, 28.20434, -0.88705, 2.58813, 9.52174, 0.01092, 0.07274, 0.03171
382, 16421, 36.48170, 42.91965, 52.16781, 28.20434, -0.55665, 2.82875, 9.76475, 0.02012, 0.07314, 0.01745
383, 16461, 36.48170, 42.91965, 52.16781, 28.20434, -0.75776, 2.73178, 9.53730, 0.01825, 0.07341, 0.02518
384, 16501, 36.48170, 42.91965, 52.16781, 28.20434, -0.69671, 2.71981, 9.64983, -0.00160, 0.07008, -0.03357
385, 16553, 36.48170, 42.91965, 52.16781, 28.20434, -0.80565, 2.51870, 9.76715, -0.23555, 0.19878, -0.11578
386, 16594, 36.48170, 42.91965, 52.16781, 28.20434, -0.83318, 2.59053, 9.74919, -0.06249, 0.14975, -0.04183
387, 16635, 36.48170, 42.91965, 52.16781, 28.20434, -0.93494, 2.48039, 9.60075, -0.07741, 0.23449, -0.00266
388, 16676, 36.48170, 42.91965, 52.16781, 28.20434, -1.27372, 2.48997, 9.04649, 0.01412, 0.09126, 0.03837
389, 16717, 36.48170, 42.91965, 52.16781, 28.20434, -0.76016, 2.39181, 9.61631, 0.01905, 0.07168, 0.01679
390, 16761, 36.48170, 42.91965, 52.16781, 28.20434, -0.92775, 2.51631, 9.59237, 0.03571, 0.03997, 0.01732
391, 16802, 36.48170, 42.91965, 52.16781, 28.20434, -0.71946, 2.60010, 9.91798, 0.03264, 0.04330, 0.04983
392, 16843, 36.48170, 42.91965, 52.16781, 28.20434, -0.96007, 2.33794, 9.24282, 0.05942, 0.00693, 0.10006
393, 16884, 36.48170, 42.91965, 52.16781, 28.20434, -0.85832, 2.50314, 9.17578, 0.01372, 0.06542, 0.04676
394, 16925, 36.48170, 42.91965, 52.16781, 28.20434, -0.87269, 2.46962, 9.55526, 0.03984, 0.04517, 0.04530
395, 16969, 36.48170, 42.91965, 52.16781, 28.20434, -0.77572, 2.49236, 9.55646, 0.04197, 0.04903, 0.04517
396, 17010, 36.48170, 42.91965, 52.16781, 28.20434, -0.78769, 2.60250, 9.62708, 0.00773, 0.07901, 0.03597
397, 17051, 36.48170, 42.91965, 52.16781, 28.20434, -0.83199, 2.57736, 9.58878, 0.00946, 0.07861, 0.03557
398, 17092, 36.48170, 42.91965, 52.16781, 28.20434, -0.82361, 2.56419, 9.72884, 0.02158, 0.06995, 0.03504
399, 17136, 36.48170, 42.91965, 52.16781, 28.20434, -0.75417, 2.66475, 9.68574, 0.01079, 0.07594, 0.03611
400, 17177, 36.48170, 42.91965, 52.16781, 28.20434, -0.85473, 2.59053, 9.58519, -0.00160, 0.08740, 0.03384
401, 17218, 36.48170, 42.91965, 52.16781, 28.20434, -0.82959, 2.60609, 9.70011, 0.00573, 0.08207, 0.03491
402, 17259, 36.48170, 42.91965, 52.16781, 28.20434, -0.79248, 2.57018, 9.52294, 0.00746, 0.08100, 0.03331
403, 17300, 36.48170, 42.91965, 52.16781, 28.20434, -0.56264, 2.69467, 9.99938, -0.02785, 0.11245, 0.03144
404, 17344, 36.48170, 42.91965, 52.16781, 28.20434, -0.82839, 2.65158, 9.68095, 0.00973, 0.08127, 0.03424
405, 17385, 36.48170, 42.91965, 52.16781, 28.20434, -0.79727, 2.56658, 9.62110, 0.01092, 0.07994, 0.03437
406, 17426, 36.48170, 42.91965, 52.16781, 28.20434, -0.79487, 2.58215, 9.60314, 0.00786, 0.08140, 0.03384
407, 17467, 36.48170, 42.91965, 52.16781, 28.20434, -0.84994, 2.59053, 9.64265, 0.00666, 0.07914, 0.03464
408, 17508, 36.48170, 42.91965, 52.16781, 28.20434, -0.82001, 2.62285, 9.55526, 0.00360, 0.08154, 0.03517
409, 17552, 36.48170, 42.91965, 52.16781, 28.20434, -0.81642, 2.53307, 9.48343, 0.01252, 0.07568, 0.03477
410, 17593, 36.48170, 42.91965, 52.16781, 28.20434, -0.77572, 2.61088, 9.69532, 0.00746, 0.07794, 0.03584
411, 17634, 36.48170, 42.91965, 52.16781, 28.20434, -0.78410, 2.60369, 9.66060, 0.00799, 0.08087, 0.03331
412, 17675, 36.48170, 42.91965, 52.16781, 28.20434, -0.84755, 2.58334, 9.62349, 0.00893, 0.08034, 0.03464
413, 17716, 36.48170, 42.91965, 52.16781, 28.20434, -0.82480, 2.60968, 9.61511, 0.01599, 0.07554, 0.03597
414, 17760, 36.48170, 42.91965, 52.16781, 28.20434, -0.74579, 2.78087, 9.48942, 0.02851, 0.05489, 0.04477
415, 17801, 36.48170, 42.91965, 52.16781, 28.20434, -0.79128, 2.58933, 9.63666, 0.02451, 0.06848, 0.03784
416, 17842, 36.48170, 42.91965, 52.16781, 28.20434, -0.79966, 2.55940, 9.58399, 0.02038, 0.07035, 0.04290
417, 17883, 36.48170, 42.91965, 52.16781, 28.20434, -0.81403, 2.64918, 9.41161, 0.04117, 0.06488, 0.05049
418, 17924, 36.48170, 42.91965, 52.16781, 28.20434, -0.80206, 2.69587, 9.64265, 0.01745, 0.07554, 0.04303
419, 17968, 36.48170, 42.91965, 52.16781, 28.20434, -0.84036, 2.66235, 9.70370, 0.02411, 0.07514, 0.04223
420, 18009, 36.48170, 42.91965, 52.16781, 28.20434, -0.75896, 2.72939, 9.51097, 0.04290, 0.05742, 0.04703
421, 18050, 36.48170, 42.91965, 52.16781, 28.20434, -0.71946, 2.43371, 9.30985, 0.03904, 0.07035, 0.04197
422, 18091, 36.48170, 42.91965, 52.16781, 28.20434, -0.80086, 2.77129, 9.67257, -0.00080, 0.08474, 0.03118
423, 18153, 36.48170, 42.91965, 52.16781, 28.20434, -0.81762, 2.54863, 9.50857, 0.00933, 0.08220, 0.03491
424, 18194, 36.48170, 42.91965, 52.16781, 28.20434, -0.78171, 2.67073, 9.61751, 0.00666, 0.07754, 0.03451
425, 18235, 36.48170, 42.91965, 52.16781, 28.20434, -0.78769, 2.57018, 9.43675, 0.02571, 0.06781, 0.04104
426, 18276, 36.48170, 42.91965, 52.16781, 28.20434, -0.67038, 2.69707, 9.01058, 0.03517, 0.07221, 0.03770
427, 18317, 36.48170, 42.91965, 52.16781, 28.20434, -0.70988, 2.70665, 9.61511, 0.01399, 0.07767, 0.03571
428, 18361, 36.48170, 42.91965, 52.16781, 28.20434, -0.73382, 2.65278, 9.54089, 0.00906, 0.07834, 0.03344
429, 18402, 36.48170, 42.91965, 52.16781, 28.20434, -0.81163, 2.82875, 9.78869, 0.01545, 0.08074, 0.03317
430, 18443, 36.48170, 42.91965, 52.16781, 28.20434, -0.78530, 2.65876, 9.58279, 0.00973, 0.07901, 0.03384
431, 18484, 36.48170, 42.91965, 52.16781, 28.20434, -0.68115, 2.71981, 9.59596, 0.01306, 0.07354, 0.03251
432, 18525, 36.48170, 42.91965, 52.16781, 28.20434, -0.74699, 2.67313, 9.57681, 0.01785, 0.07421, 0.03424
433, 18569, 36.48170, 42.91965, 52.16781, 28.20434, -0.74939, 2.72460, 9.64025, 0.01292, 0.07821, 0.03437
434, 18610, 36.48170, 42.91965, 52.16781, 28.20434, -0.65960, 2.80002, 9.58998, -0.00253, 0.08420, 0.03224
435, 18651, 36.48170, 42.91965, 52.16781, 28.20434, -0.75657, 2.68270, 9.60673, 0.00946, 0.07914, 0.03317
436, 18692, 36.48170, 42.91965, 52.16781, 28.20434, -0.73741, 2.74495, 9.57681, 0.01146, 0.07914, 0.03384
437, 18733, 36.48170, 42.91965, 52.16781, 28.20434, -0.74579, 2.63602, 9.44393, 0.00040, 0.08007, 0.03504
438, 18777, 36.43061, 42.91965, 52.16781, 28.20434, -0.81283, 2.61806, 9.59835, 0.00693, 0.08314, 0.03131
439, 18818, 36.48170, 42.91965, 52.16781, 28.20434, -0.78410, 2.68749, 9.74201, 0.01106, 0.07994, 0.03184
440, 18859, 36.99265, 42.91965, 52.16781, 28.20434, -0.77213, 2.64799, 9.33499, -0.01013, 0.08460, 0.02571
441, 18900, 36.48170, 42.91965, 52.16781, 28.20434, -0.68115, 2.76051, 9.47266, 0.00160, 0.08287, 0.02318
442, 18944, 36.48170, 42.91965, 52.16781, 28.20434, -0.70509, 2.72939, 9.73363, 0.02358, 0.07168, 0.03424
443, 18985, 36.48170, 42.91965, 52.16781, 28.20434, -0.86670, 2.57137, 9.64983, -0.06155, 0.10645, 0.01945
444, 19026, 36.48170, 42.91965, 52.16781, 28.20434, -0.83677, 2.43011, 9.16979, 0.01226, 0.06675, 0.02212
445, 19067, 36.48170, 42.91965, 52.16781, 28.20434, -0.66080, 2.93050, 9.76475, 0.02998, 0.06688, 0.03997
446, 19108, 36.43061, 42.91965, 52.16781, 28.20434, -0.63566, 2.65876, 9.44273, 0.01572, 0.07461, 0.03864
447, 19152, 36.43061, 42.91965, 52.16781, 28.20434, -0.71706, 2.71024, 9.65582, 0.00346, 0.08327, 0.03624
448, 19193, 36.48170, 42.91965, 52.16781, 28.20434, -0.77093, 2.66834, 9.66300, 0.01652, 0.07608, 0.03784
449, 19234, 36.43061, 42.91965, 52.16781, 28.20434, -0.78171, 2.65397, 9.54209, 0.03011, 0.07368, 0.04024
450, 19275, 36.43061, 42.91965, 52.16781, 28.20434, -0.67636, 2.92212, 9.72285, 0.07727, 0.05582, 0.04890
451, 19316, 36.43061, 42.91965, 52.16781, 28.20434, -0.74220, 2.77129, 9.44991, 0.03611, 0.06675, 0.04277
452, 19360, 36.43061, 42.91965, 52.16781, 28.20434, -0.77692, 2.93649, 9.74919, 0.05676, 0.06289, 0.04383
453, 19401, 36.43061, 42.91965, 52.16781, 28.20434, -0.74819, 2.70784, 9.54568, 0.02798, 0.06941, 0.03824
454, 19442, 36.48170, 42.91965, 52.16781, 28.20434, -0.71587, 2.80720, 9.60195, 0.03238, 0.07341, 0.04010
455, 19483, 36.43061, 42.91965, 52.16781, 28.20434, -0.72664, 2.87304, 9.70011, 0.02558, 0.07621, 0.03624
456, 19524, 36.43061, 42.91965, 52.16781, 28.20434, -1.14682, 1.99676, 8.73524, 0.13869, 0.02451, 0.05209
457, 19568, 36.43061, 42.91965, 52.16781, 28.20434, -0.61052, 2.86107, 9.36851, 0.02611, 0.06901, 0.03784
458, 19609, 36.43061, 42.91965, 52.16781, 28.20434, -0.66559, 2.91853, 9.60075, 0.02998, 0.07594, 0.03837
459, 19650, 36.43061, 42.91965, 52.16781, 28.20434, -0.64404, 2.96163, 9.62948, 0.02825, 0.07341, 0.03824
460, 19691, 36.43061, 42.91965, 52.16781, 28.20434, -0.68714, 2.94487, 9.61392, 0.02825, 0.06928, 0.03824
461, 19732, 36.43061, 42.91965, 52.16781, 28.20434, -0.66439, 2.90536, 9.60195, 0.02984, 0.07061, 0.04077
462, 19786, 36.43061, 42.91965, 52.16781, 28.20434, -0.59137, 2.90177, 9.34696, 0.01612, 0.06462, 0.03664
463, 19825, 36.43061, 42.91965, 52.16781, 28.20434, -0.60094, 2.96163, 9.60554, 0.01332, 0.07861, 0.03264
464, 19865, 36.43061, 42.91965, 52.16781, 28.20434, -0.67876, 2.93409, 9.56124, 0.02065, 0.07781, 0.03344
465, 19905, 36.43061, 42.91965, 52.16781, 28.20434, -0.63327, 2.94487, 9.48463, 0.01705, 0.07727, 0.03531
466, 19948, 36.43061, 42.91965, 52.16781, 28.20434, -0.61890, 3.00592, 9.57561, 0.02465, 0.07901, 0.03291
467, 19988, 36.43061, 42.91965, 52.16781, 28.20434, -0.56503, 2.88621, 9.21887, 0.02238, 0.07234, 0.03371
468, 20028, 36.43061, 42.91965, 52.16781, 28.20434, -0.59376, 2.94247, 9.56962, 0.01625, 0.07834, 0.03344
469, 20068, 36.43061, 42.91965, 52.16781, 28.20434, -0.65122, 2.97480, 9.63187, 0.01079, 0.08513, 0.03371
470, 20108, 36.43061, 42.91965, 52.16781, 28.20434, -0.63327, 2.99395, 9.48583, 0.00706, 0.08553, 0.03491
471, 20151, 36.43061, 42.91965, 52.16781, 28.20434, -0.65721, 2.94846, 9.54688, 0.00000, 0.08287, 0.03477
472, 20191, 36.43061, 42.91965, 52.16781, 28.20434, -0.64045, 2.88501, 9.57920, -0.01732, 0.08354, 0.03091
473, 20231, 36.43061, 42.91965, 52.16781, 28.20434, -0.66679, 2.99275, 9.48463, -0.03104, 0.08887, 0.03198
474, 20271, 36.43061, 42.91965, 52.16781, 28.20434, -0.71946, 2.50433, 8.97945, -0.05529, 0.10086, 0.03011
475, 20311, 36.43061, 42.91965, 52.16781, 28.20434, -0.70629, 2.88142, 9.67257, 0.00080, 0.08647, 0.03238
476, 20354, 36.43061, 42.91965, 52.16781, 28.20434, -0.64284, 2.89339, 9.57920, 0.00679, 0.08154, 0.03371
477, 20394, 36.43061, 42.91965, 52.16781, 28.20434, -0.66200, 2.88860, 9.45710, 0.00586, 0.08087, 0.03491
478, 20434, 36.43061, 42.91965, 52.16781, 28.20434, -0.64643, 2.89938, 9.54329, 0.00733, 0.07954, 0.03451
479, 20474, 36.43061, 42.91965, 52.16781, 28.20434, -0.64883, 2.85030, 9.62230, 0.00746, 0.07954, 0.03451
480, 20514, 36.43061, 42.91965, 52.16781, 28.20434, -0.65841, 2.88741, 9.60434, 0.00506, 0.08540, 0.03251
481, 20557, 36.43061, 42.91965, 52.16781, 28.20434, -0.67995, 2.91135, 9.54089, 0.00799, 0.08394, 0.03424
482, 20597, 36.43061, 42.91965, 52.16781, 28.20434, -0.69911, 2.92093, 9.57681, 0.00759, 0.07967, 0.03557
483, 20637, 36.43061, 42.91965, 52.16781, 28.20434, -0.64045, 2.90058, 9.58758, 0.00879, 0.08287, 0.03357
484, 20677, 36.43061, 42.91965, 52.16781, 28.20434, -0.66200, 2.87663, 9.53970, 0.00906, 0.08100, 0.03291
485, 20720, 36.43061, 42.91965, 52.16781, 28.20434, -0.63686, 2.89220, 9.57920, 0.00853, 0.08021, 0.03171
486, 20760, 36.43061, 42.91965, 52.16781, 28.20434, -0.68354, 2.98198, 9.33619, 0.01239, 0.08140, 0.03504
487, 20800, 36.43061, 42.91965, 52.16781, 28.20434, -0.61292, 3.29562, 11.52688, 0.04143, 0.06382, 0.05995
488, 20840, 36.43061, 42.91965, 52.16781, 28.20434, -0.58778, 2.85748, 9.47266, 0.00613, 0.09792, 0.03331
489, 20880, 36.43061, 42.91965, 52.16781, 28.20434, -0.63925, 2.80481, 9.31464, 0.01292, 0.08820, 0.03877
490, 20923, 36.43061, 42.91965, 52.16781, 28.20434, -0.68474, 2.93769, 9.65701, 0.00200, 0.09806, 0.04170
491, 20963, 36.43061, 42.91965, 52.16781, 28.20434, -0.62249, 2.90656, 9.46069, 0.00160, 0.09753, 0.04250
492, 21003, 36.43061, 42.91965, 52.16781, 28.20434, -0.67876, 2.87304, 9.55406, 0.00586, 0.08327, 0.03784
493, 21043, 36.43061, 42.91965, 52.16781, 28.20434, -0.65481, 2.90896, 9.62948, 0.01106, 0.07581, 0.03704
494, 21083, 36.43061, 42.91965, 52.16781, 28.20434, -0.65601, 2.90297, 9.53730, 0.01545, 0.07208, 0.03584
495, 21126, 36.43061, 42.91965, 52.16781, 28.20434, -0.70030, 2.93769, 9.61392, 0.00386, 0.05836, 0.03704
496, 21166, 36.43061, 42.91965, 52.16781, 28.20434, -0.73622, 2.87783, 9.42717, 0.00520, 0.04197, 0.03477
497, 21206, 36.43061, 42.91965, 52.16781, 28.20434, -0.69552, 2.89339, 9.35774, -0.00493, 0.08367, 0.03064
498, 21246, 36.43061, 42.91965, 52.16781, 28.20434, -0.64643, 2.87663, 9.59237, 0.00493, 0.08354, 0.03158
499, 21286, 36.43061, 42.91965, 52.16781, 28.20434, -0.65242, 2.88262, 9.53132, 0.00573, 0.08047, 0.03251
500, 21338, 36.43061, 42.91965, 52.16781, 28.20434, -0.64763, 2.88621, 9.53730, 0.00933, 0.07767, 0.03571
501, 21379, 36.43061, 42.91965, 52.16781, 28.20434, -0.64643, 2.90776, 9.56364, 0.00693, 0.08100, 0.03451
502, 21420, 36.43061, 42.91965, 52.16781, 28.20434, -0.63686, 2.83114, 9.58638, 0.00520, 0.08074, 0.03437
503, 21461, 36.43061, 42.91965, 52.16781, 28.20434, -0.67038, 2.91614, 9.61511, 0.01106, 0.07794, 0.03517
504, 21502, 36.43061, 42.91965, 52.16781, 28.20434, -0.67756, 2.86107, 9.61751, 0.00640, 0.07954, 0.03251
505, 21546, 36.43061, 42.91965, 52.16781, 28.20434, -0.60573, 2.92452, 9.64265, 0.00879, 0.07901, 0.03477
506, 21587, 36.43061, 42.91965, 52.16781, 28.20434, -0.62608, 2.84790, 9.47864, 0.00999, 0.07954, 0.03371
507, 21628, 36.43061, 42.91965, 52.16781, 28.20434, -0.67876, 2.92093, 9.59716, 0.00733, 0.08234, 0.03211
508, 21669, 36.43061, 42.91965, 52.16781, 28.20434, -0.61411, 2.84431, 9.34218, 0.01053, 0.07767, 0.03491
509, 21713, 36.43061, 42.91965, 52.16781, 28.20434, -0.62489, 2.86466, 9.49899, 0.00600, 0.08087, 0.03384
510, 21754, 36.43061, 42.91965, 52.16781, 28.20434, -0.66559, 2.90177, 9.58519, 0.00706, 0.07954, 0.03424
511, 21795, 36.43061, 42.91965, 52.16781, 28.20434, -0.69192, 2.89698, 9.56723, 0.00719, 0.08127, 0.03264
512, 21836, 36.43061, 42.91965, 52.16781, 28.20434, -0.65122, 2.88022, 9.52773, 0.00573, 0.08114, 0.03291
513, 21877, 36.43061, 42.91965, 52.16781, 28.20434, -0.63087, 2.90656, 9.60793, 0.00719, 0.08087, 0.03437
514, 21921, 36.43061, 42.91965, 52.16781, 28.20434, -0.64643, 2.90656, 9.55646, 0.00733, 0.08114, 0.03251
515, 21962, 36.43061, 42.91965, 52.16781, 28.20434, -0.63087, 2.89938, 9.48702, 0.00586, 0.07874, 0.03371
516, 22003, 36.43061, 42.91965, 52.16781, 28.20434, -0.58179, 2.88142, 9.61511, 0.00666, 0.08420, 0.03384
517, 22044, 36.43061, 42.91965, 52.16781, 28.20434, -0.66200, 2.91135, 9.56962, 0.00626, 0.08087, 0.03424
518, 22085, 36.43061, 42.91965, 52.16781, 28.20434, -0.62848, 2.88501, 9.45470, 0.01079, 0.07927, 0.03424
519, 22129, 36.43061, 42.91965, 52.16781, 28.20434, -0.64165, 2.87424, 9.58998, 0.00426, 0.08447, 0.03331
520, 22170, 36.43061, 42.91965, 52.16781, 28.20434, -0.67995, 2.86227, 9.59596, 0.00600, 0.08114, 0.03437
521, 22211, 36.43061, 42.91965, 52.16781, 28.20434, -0.64883, 2.88860, 9.50378, 0.00759, 0.08207, 0.03437
522, 22252, 36.43061, 42.91965, 52.16781, 28.20434, -0.65601, 2.89818, 9.56843, 0.00733, 0.08100, 0.03264
523, 22293, 36.43061, 42.91965, 52.16781, 28.20434, -0.51834, 2.72939, 9.41879, 0.03970, 0.04570, 0.03664
524, 22337, 36.43061, 42.91965, 52.16781, 28.20434, -0.69312, 2.93888, 9.66300, 0.00200, 0.08127, 0.03437
525, 22378, 36.43061, 42.91965, 52.16781, 28.20434, -0.59256, 2.94726, 9.61511, -0.02265, 0.09753, 0.03091
526, 22419, 36.43061, 42.91965, 52.16781, 28.20434, -0.67995, 2.82516, 9.54568, 0.00027, 0.08540, 0.03357
527, 22460, 36.43061, 42.91965, 52.16781, 28.20434, -0.61292, 2.84790, 9.58878, 0.00586, 0.08127, 0.03517
528, 22501, 36.43061, 42.91965, 52.16781, 28.20434, -0.69432, 2.82396, 9.58399, 0.00893, 0.08074, 0.03397
529, 22545, 36.43061, 42.91965, 52.16781, 28.20434, -0.68354, 2.85868, 9.44752, 0.00293, 0.08180, 0.03451
530, 22586, 36.43061, 42.91965, 52.16781, 28.20434, -0.51595, 2.60250, 10.21007, 0.08300, 0.04650, 0.04370
531, 22627, 36.43061, 42.91965, 52.16781, 28.20434, -0.80685, 2.95085, 10.30824, -0.01279, 0.07421, 0.03211
532, 22668, 36.43061, 42.91965, 52.16781, 28.20434, -0.57940, 2.84910, 9.38647, 0.00346, 0.07741, 0.03131
533, 22712, 36.43061, 42.91965, 52.16781, 28.20434, -0.59376, 2.89698, 9.39245, -0.00160, 0.07461, 0.03717
534, 22753, 36.43061, 42.91965, 52.16781, 28.20434, -0.67038, 2.87544, 9.66779, -0.01972, 0.07914, 0.03331
535, 22794, 36.43061, 42.91965, 52.16781, 28.20434, -0.65122, 2.85389, 9.46667, 0.00200, 0.08087, 0.03437
536, 22835, 36.43061, 42.91965, 52.16781, 28.20434, -1.03430, 3.05859, 10.42076, -0.05089, 0.17507, 0.02078
537, 22884, 36.43061, 42.91965, 52.16781, 28.20434, -0.87747, 2.88741, 9.77553, -0.00520, 0.10472, 0.04303
538, 22938, 36.43061, 42.91965, 52.16781, 28.20434, -0.73622, 2.96402, 9.59955, 0.01879, 0.08060, 0.04290
539, 22979, 36.43061, 42.91965, 52.16781, 28.20434, -0.67038, 2.78446, 9.51097, 0.01545, 0.07234, 0.03504
540, 23020, 36.37951, 42.91965, 52.16781, 28.20434, -0.62130, 2.82636, 9.57441, 0.01879, 0.07128, 0.03677
541, 23061, 36.37951, 42.91965, 52.16781, 28.20434, -0.71946, 2.87424, 9.47026, -0.00333, 0.07541, 0.03251
542, 23102, 36.43061, 42.91965, 52.16781, 28.20434, -0.70868, 2.90776, 9.65941, -0.02172, 0.08247, 0.03104
543, 23146, 36.43061, 42.91965, 52.16781, 28.20434, -0.61890, 2.87065, 9.74679, -0.00266, 0.08607, 0.03171
544, 23187, 36.43061, 42.91965, 52.16781, 28.20434, -0.75776, 2.77009, 9.57800, -0.01692, 0.09619, 0.03277
545, 23228, 36.43061, 42.91965, 52.16781, 28.20434, -0.68833, 2.97719, 9.66300, 0.00866, 0.07714, 0.03544
546, 23269, 36.48170, 42.91965, 52.16781, 28.20434, -0.67756, 2.75932, 9.48822, -0.00666, 0.07581, 0.03531
547, 23310, 36.48170, 42.91965, 52.16781, 28.20434, -0.76016, 2.76530, 9.63666, 0.00280, 0.06768, 0.03491
548, 23354, 36.48170, 42.91965, 52.16781, 28.20434, -0.59256, 2.73059, 9.38407, -0.00107, 0.06395, 0.03184
549, 23395, 36.48170, 42.91965, 52.16781, 28.20434, -0.70509, 2.69467, 9.64624, 0.00053, 0.08127, 0.03184
550, 23436, 36.48170, 42.91965, 52.16781, 28.20434, -0.72544, 2.80241, 9.67736, -0.02678, 0.09646, 0.02745
551, 23477, 36.48170, 42.91965, 52.16781, 28.20434, -0.85114, 2.40737, 9.37569, -0.09939, 0.13123, 0.02225
552, 23521, 36.48170, 42.91965, 52.16781, 28.20434, -0.74699, 2.74256, 9.55885, 0.00120, 0.08633, 0.03211
553, 23562, 36.48170, 42.91965, 52.16781, 28.20434, -0.77931, 2.78805, 9.62469, 0.00280, 0.08420, 0.03464
554, 23603, 36.48170, 42.91965, 52.16781, 28.20434, -0.66798, 2.81678, 9.62948, 0.00373, 0.08167, 0.03344
555, 23644, 36.53279, 42.91965, 52.16781, 28.20434, -0.71228, 2.85030, 9.58399, 0.00546, 0.08260, 0.03211
556, 23685, 36.53279, 42.91965, 52.16781, 28.20434, -0.69791, 2.83593, 9.55167, 0.00493, 0.08314, 0.03517
557, 23729, 36.53279, 42.91965, 52.16781, 28.20434, -0.68354, 2.83713, 9.57082, 0.00480, 0.08140, 0.03264
558, 23770, 36.53279, 42.91965, 52.16781, 28.20434, -0.70868, 2.84671, 9.63906, 0.00666, 0.08194, 0.03211
559, 23811, 36.58389, 42.91965, 52.16781, 28.20434, -0.65122, 2.78326, 9.53850, 0.00693, 0.08180, 0.03331
560, 23852, 36.58389, 42.91965, 52.16781, 28.20434, -0.64763, 3.27168, 10.18613, 0.23848, 0.03997, 0.06515
561, 23893, 36.58389, 42.91965, 52.16781, 28.20434, -0.84994, 2.68031, 9.67497, 0.03264, 0.11498, 0.03091
562, 23937, 36.58389, 42.91965, 52.16781, 28.20434, -0.60932, 2.64080, 9.51336, 0.01106, 0.07155, 0.03477
563, 23978, 36.58389, 42.91965, 52.16781, 28.20434, -0.71826, 2.69348, 9.51815, 0.00413, 0.07594, 0.03078
564, 24019, 36.58389, 42.91965, 52.16781, 28.20434, -0.82600, 2.75333, 9.67736, 0.00160, 0.08513, 0.03611
565, 24060, 36.58389, 42.91965, 52.16781, 28.20434, -0.62848, 2.66953, 9.56364, 0.00706, 0.08234, 0.03251
566, 24101, 36.58389, 42.91965, 52.16781, 28.20434, -0.78650, 2.71502, 9.62589, 0.00733, 0.07967, 0.03064
567, 24145, 36.58389, 42.91965, 52.16781, 28.20434, -0.71706, 2.73657, 9.61511, 0.00973, 0.07807, 0.03517
568, 24186, 36.58389, 42.91965, 52.16781, 28.20434, -0.70270, 2.75213, 9.57082, 0.00826, 0.07807, 0.03384
569, 24227, 36.58389, 42.91965, 52.16781, 28.20434, -0.74220, 2.81319, 9.58040, 0.00213, 0.07967, 0.03317
570, 24268, 36.53279, 42.91965, 52.16781, 28.20434, -0.71467, 2.72819, 9.65342, 0.00759, 0.07807, 0.03504
571, 24312, 36.53279, 42.91965, 52.16781, 28.20434, -0.75776, 2.62883, 9.52413, 0.01332, 0.07581, 0.03384
572, 24353, 36.53279, 42.91965, 52.16781, 28.20434, -0.70629, 2.73178, 9.74201, 0.00147, 0.08953, 0.03371
573, 24394, 36.53279, 42.91965, 52.16781, 28.20434, -0.63566, 2.76291, 9.59835, -0.00200, 0.08700, 0.03131
574, 24435, 36.53279, 42.91965, 52.16781, 28.20434, -0.80804, 2.75333, 9.54329, 0.01665, 0.08287, 0.03571
575, 24476, 36.58389, 42.91965, 52.16781, 28.20434, -0.68474, 2.78924, 9.67497, 0.01412, 0.07914, 0.03637
576, 24530, 36.58389, 42.91965, 52.16781, 28.20434, -0.68474, 2.74136, 9.45231, 0.02505, 0.07381, 0.03704
577, 24569, 36.53279, 42.91965, 52.16781, 28.20434, -0.64404, 2.96642, 9.71447, 0.01852, 0.07101, 0.03770
578, 24609, 36.53279, 42.91965, 52.16781, 28.20434, -0.70150, 2.79284, 9.68215, 0.01439, 0.07168, 0.03517
579, 24649, 36.53279, 42.91965, 52.16781, 28.20434, -0.66319, 2.96043, 9.74320, 0.02052, 0.06648, 0.03451
580, 24689, 36.53279, 42.91965, 52.16781, 28.20434, -0.70629, 2.73897, 9.57561, 0.00893, 0.07954, 0.03411
581, 24732, 36.53279, 42.91965, 52.16781, 28.20434, -0.66559, 2.84072, 9.63786, 0.06568, 0.05769, 0.04223
582, 24772, 36.53279, 42.91965, 52.16781, 28.20434, -0.77213, 2.78685, 9.61033, 0.01119, 0.07687, 0.03277
583, 24812, 36.53279, 42.91965, 52.16781, 28.20434, -0.69552, 2.73538, 9.62948, -0.00213, 0.07967, 0.03238
584, 24852, 36.53279, 42.91965, 52.16781, 28.20434, -0.65721, 2.69348, 9.58758, 0.00560, 0.07967, 0.03118
585, 24892, 36.53279, 42.91965, 52.16781, 28.20434, -0.73502, 2.75692, 9.56962, 0.01919, 0.07381, 0.03397
586, 24935, 36.53279, 42.91965, 52.16781, 28.20434, -0.71706, 2.81917, 9.63068, 0.00200, 0.08034, 0.03277
587, 24975, 36.53279, 42.91965, 52.16781, 28.20434, -0.64045, 2.88382, 9.66180, 0.00933, 0.07794, 0.03317
588, 25015, 36.53279, 42.91965, 52.16781, 28.20434, -0.66439, 2.80840, 9.64025, 0.01332, 0.07954, 0.03491
589, 25055, 36.53279, 42.91965, 52.16781, 28.20434, -0.74579, 2.83234, 9.67736, 0.00373, 0.07861, 0.02971
590, 25095, 36.53279, 42.91965, 52.16781, 28.20434, -0.64404, 2.78805, 9.77912, -0.02025, 0.08513, 0.02571
591, 25138, 36.53279, 42.91965, 52.16781, 28.20434, -0.55905, 2.92571, 9.57082, -0.07981, 0.12577, 0.01825
592, 25178, 36.53279, 42.91965, 52.16781, 28.20434, -0.71108, 2.76650, 9.64624, 0.00253, 0.10432, 0.03624
593, 25218, 36.53279, 42.91965, 52.16781, 28.20434, -0.71826, 2.69108, 9.52533, -0.00013, 0.08580, 0.03491
594, 25258, 36.53279, 42.91965, 52.16781, 28.20434, -0.69432, 2.68031, 9.51216, 0.00293, 0.07981, 0.03264
595, 25301, 36.53279, 42.91965, 52.16781, 28.20434, -0.70868, 2.83952, 9.87369, 0.00107, 0.09353, 0.02878
596, 25341, 36.53279, 42.91965, 52.16781, 28.20434, -0.68474, 2.73657, 9.56364, 0.00666, 0.07994, 0.03437
597, 25381, 36.53279, 42.91965, 52.16781, 28.20434, -0.74699, 2.71742, 9.57561, 0.01079, 0.07981, 0.03437
598, 25421, 36.53279, 42.91965, 52.16781, 28.20434, -0.75058, 2.65517, 9.51575, 0.00919, 0.07301, 0.03477
599, 25461, 36.53279, 42.91965, 52.16781, 28.20434, -0.75178, 2.83473, 9.56005, 0.00746, 0.07994, 0.03571
600, 25504, 36.53279, 42.91965, 52.16781, 28.20434, -0.75657, 2.66235, 9.47984, 0.02478, 0.07061, 0.03810
601, 25544, 36.53279, 42.91965, 52.16781, 28.20434, -0.61052, 2.71263, 9.46548, 0.02332, 0.06755, 0.03571
602, 25584, 36.53279, 42.91965, 52.16781, 28.20434, -0.73502, 2.73538, 9.51935, 0.00933, 0.08007, 0.03477
603, 25624, 36.53279, 42.91965, 52.16781, 28.20434, -0.65601, 2.74016, 9.50618, 0.01506, 0.07727, 0.03517
604, 25664, 36.53279, 42.91965, 52.16781, 28.20434, -0.72664, 2.86586, 9.85573, 0.02771, 0.06608, 0.03704
605, 25707, 36.53279, 42.91965, 52.16781, 28.20434, -0.69911, 2.70665, 9.46787, 0.02638, 0.07208, 0.03637
606, 25747, 36.53279, 42.91965, 52.16781, 28.20434, -0.71108, 2.80840, 9.64863, 0.01572, 0.07901, 0.03437
607, 25787, 36.53279, 42.91965, 52.16781, 28.20434, -0.76495, 2.97480, 9.52653, 0.00693, 0.09073, 0.03024
608, 25827, 36.53279, 42.91965, 52.16781, 28.20434, -0.72065, 2.51152, 9.46428, 0.00506, 0.08940, 0.03184
609, 25867, 36.53279, 42.91965, 52.16781, 28.20434, -0.68235, 2.66475, 9.61033, 0.00946, 0.08513, 0.03411
610, 25910, 36.53279, 42.91965, 52.16781, 28.20434, -0.75537, 2.78924, 9.61990, 0.00719, 0.08260, 0.03371
611, 25950, 36.53279, 42.91965, 52.16781, 28.20434, -0.73263, 2.67791, 9.54927, 0.01346, 0.08487, 0.03504
612, 25990, 36.53279, 42.91965, 52.16781, 28.20434, -0.87628, 2.16915, 9.08719, 0.14029, -0.00506, 0.05289
613, 26030, 36.53279, 42.91965, 52.16781, 28.20434, -0.77093, 2.85389, 10.05325, -0.05516, 0.09153, 0.02212
614, 26082, 36.53279, 42.91965, 52.16781, 28.20434, -0.65841, 2.72700, 9.56364, 0.02478, 0.07115, 0.03491
615, 26123, 36.53279, 42.91965, 52.16781, 28.20434, -0.73741, 2.70305, 9.55406, -0.00053, 0.08140, 0.03291
616, 26164, 36.53279, 42.91965, 52.16781, 28.20434, -0.69073, 2.80720, 9.56484, 0.01839, 0.07608, 0.03544
617, 26205, 36.53279, 42.91965, 52.16781, 28.20434, -0.50996, 3.11964, 9.96586, -0.02545, 0.08060, 0.02904
618, 26246, 36.53279, 42.91965, 52.16781, 28.20434, -0.68714, 3.02986, 9.35774, 0.01532, 0.08327, 0.03584
619, 26290, 36.53279, 42.91965, 52.16781, 28.20434, -0.64045, 3.05261, 9.53012, -0.06835, 0.10152, 0.02092
620, 26331, 36.53279, 42.91965, 52.16781, 28.20434, -0.76974, 2.79044, 9.65222, -0.02118, 0.08127, 0.03038
621, 26372, 36.53279, 42.91965, 52.16781, 28.20434, -0.70868, 2.67552, 9.57681, 0.03064, 0.07128, 0.03970
622, 26413, 36.53279, 42.91965, 52.16781, 28.20434, -0.76136, 2.85030, 9.55287, 0.01958, 0.08007, 0.03757
623, 26454, 36.53279, 42.91965, 52.16781, 28.20434, -0.71108, 2.81558, 9.65821, 0.01599, 0.07554, 0.03531
624, 26498, 36.53279, 42.91965, 52.16781, 28.20434, -0.62249, 2.72221, 9.57202, 0.02971, 0.07221, 0.03531
625, 26539, 36.53279, 42.91965, 52.16781, 28.20434, -0.67876, 3.01430, 9.72166, 0.01892, 0.07474, 0.03637
626, 26580, 36.53279, 42.91965, 52.16781, 28.20434, -0.77213, 2.76530, 9.47386, 0.01132, 0.07381, 0.03397
627, 26621, 36.53279, 42.91965, 52.16781, 28.20434, -0.71467, 2.67193, 9.56244, 0.01559, 0.07208, 0.03730
628, 26662, 36.53279, 42.91965, 52.16781, 28.20434, -0.77452, 2.69946, 10.13106, -0.00067, 0.08593, 0.03211
629, 26706, 36.53279, 42.91965, 52.16781, 28.20434, -0.74220, 2.85748, 9.57800, 0.00506, 0.08274, 0.03131
630, 26747, 36.53279, 42.91965, 52.16781, 28.20434, -0.71706, 2.84671, 9.58040, -0.01026, 0.08660, 0.03118
631, 26788, 36.53279, 42.91965, 52.16781, 28.20434, -0.68354, 2.79044, 9.60913, 0.00906, 0.07887, 0.03517
632, 26829, 36.53279, 42.91965, 52.16781, 28.20434, -0.63207, 2.73538, 9.37809, 0.01452, 0.07727, 0.03624
633, 26870, 36.53279, 42.91965, 52.16781, 28.20434, -0.72305, 2.86586, 9.25119, 0.05556, 0.05969, 0.03664
634, 26909, 36.53279, 42.91965, 52.16781, 28.20434, -0.73382, 2.96282, 9.73722, 0.03238, 0.07248, 0.03118
635, 26950, 36.53279, 42.91965, 52.16781, 28.20434, -0.69312, 2.78805, 9.56364, 0.01279, 0.07687, 0.03704
636, 26991, 36.53279, 42.91965, 52.16781, 28.20434, -0.66080, 2.77488, 9.56364, 0.00173, 0.07901, 0.03517
637, 27032, 36.53279, 42.91965, 52.16781, 28.20434, -0.62848, 2.86945, 9.58878, -0.00067, 0.08767, 0.03411
638, 27076, 36.53279, 42.91965, 52.16781, 28.20434, -0.66080, 2.82755, 9.47505, 0.00107, 0.08580, 0.03557
639, 27117, 36.53279, 42.91965, 52.16781, 28.20434, -0.69911, 2.72700, 9.53611, -0.03691, 0.08380, 0.02878
640, 27158, 36.53279, 42.91965, 52.16781, 28.20434, -0.65721, 2.87304, 9.52294, 0.00546, 0.08060, 0.03198
641, 27199, 36.53279, 42.91965, 52.16781, 28.20434, -0.66080, 2.82636, 9.48942, 0.00933, 0.08140, 0.03277
642, 27240, 36.53279, 42.91965, 52.16781, 28.20434, -0.73981, 2.85987, 9.62828, 0.00613, 0.08247, 0.03397
643, 27284, 36.53279, 42.91965, 52.16781, 28.20434, -0.63805, 2.82157, 9.54449, 0.01665, 0.07608, 0.03264
644, 27325, 36.53279, 42.91965, 52.16781, 28.20434, -0.70150, 2.78565, 9.71567, 0.00373, 0.08487, 0.03011
645, 27366, 36.53279, 42.91965, 52.16781, 28.20434, -0.68474, 2.86347, 9.59835, 0.00386, 0.08474, 0.03158
646, 27407, 36.53279, 42.91965, 52.16781, 28.20434, -0.65362, 2.67911, 9.80186, -0.05423, 0.12124, 0.00986
647, 27448, 36.53279, 42.91965, 52.16781, 28.20434, -0.67636, 2.97480, 9.60673, -0.03491, 0.09566, 0.02611
648, 27492, 36.53279, 42.91965, 52.16781, 28.20434, -0.66080, 2.79762, 9.58758, 0.01665, 0.08034, 0.03571
649, 27533, 36.58389, 42.91965, 52.16781, 28.20434, -0.68833, 2.80600, 9.52533, 0.02158, 0.07901, 0.03491
650, 27574, 36.58389, 42.91965, 52.16781, 28.20434, -0.79009, 2.59651, 9.55885, -0.01839, 0.09593, 0.03238
651, 27623, 36.58389, 42.91965, 52.16781, 28.20434, -0.65960, 2.79523, 9.63906, -0.00560, 0.08633, 0.03171
652, 27664, 36.58389, 42.91965, 52.16781, 28.20434, -0.73861, 2.74016, 9.60673, -0.01545, 0.09246, 0.03118
653, 27718, 36.58389, 42.91965, 52.16781, 28.20434, -0.70629, 2.77249, 9.60793, 0.01039, 0.08060, 0.03411
654, 27759, 36.58389, 42.91965, 52.16781, 28.20434, -0.68714, 2.78087, 9.59357, 0.01346, 0.08767, 0.03557
655, 27800, 36.58389, 42.91965, 52.16781, 28.20434, -0.75417, 2.73657, 9.70969, 0.01625, 0.08247, 0.03704
656, 27841, 36.58389, 42.91965, 52.16781, 28.20434, -0.61651, 2.93409, 9.65342, 0.01665, 0.07821, 0.03557
657, 27885, 36.58389, 42.91965, 52.16781, 28.20434, -0.73382, 2.84311, 9.56962, 0.00826, 0.08180, 0.03171
658, 27926, 36.58389, 42.91965, 52.16781, 28.20434, -0.77093, 2.86945, 9.55526, -0.01639, 0.09180, 0.02851
659, 27967, 36.58389, 42.91965, 52.16781, 28.20434, -0.72065, 2.80241, 9.57082, -0.01372, 0.08527, 0.03038
660, 28008, 36.63498, 42.91965, 52.16781, 28.20434, -0.72784, 2.66714, 9.57920, -0.01306, 0.08700, 0.02825
661, 28049, 36.63498, 42.91965, 52.16781, 28.20434, -0.72185, 2.64679, 9.58160, -0.00413, 0.09006, 0.03238
662, 28094, 36.63498, 42.91965, 52.16781, 28.20434, -0.70390, 2.76889, 9.57561, -0.00200, 0.08527, 0.03384
663, 28135, 36.63498, 42.91965, 52.16781, 28.20434, -0.76734, 2.72460, 9.56005, 0.00546, 0.07941, 0.03424
664, 28176, 36.63498, 42.91965, 52.16781, 28.20434, -0.68115, 2.77129, 9.61152, 0.00466, 0.08087, 0.03477
665, 28217, 36.63498, 42.91965, 52.16781, 28.20434, -0.73382, 2.69827, 9.54808, 0.00346, 0.07981, 0.03397
666, 28258, 36.63498, 42.91965, 52.16781, 28.20434, -0.69791, 2.76411, 9.54089, 0.00826, 0.07807, 0.03371
667, 28302, 36.63498, 42.91965, 52.16781, 28.20434, -0.73143, 2.76051, 9.58399, 0.00706, 0.07887, 0.03477
668, 28343, 36.63498, 42.91965, 52.16781, 28.20434, -0.68714, 2.73178, 9.60793, 0.00746, 0.08340, 0.03397
669, 28384, 36.63498, 42.91965, 52.16781, 28.20434, -0.72903, 2.72340, 9.61272, 0.00906, 0.07927, 0.03491
670, 28425, 36.63498, 42.91965, 52.16781, 28.20434, -0.75178, 2.72580, 9.60314, 0.00666, 0.08234, 0.03517
671, 28466, 36.63498, 42.91965, 52.16781, 28.20434, -0.72903, 2.77608, 9.61751, 0.00546, 0.08021, 0.03317
672, 28510, 36.63498, 42.91965, 52.16781, 28.20434, -0.72185, 2.71742, 9.64384, 0.00773, 0.07821, 0.03544
673, 28551, 36.63498, 42.91965, 52.16781, 28.20434, -0.72903, 2.68390, 9.58878, 0.00813, 0.08034, 0.03477
674, 28592, 36.63498, 42.91965, 52.16781, 28.20434, -0.73741, 2.76051, 9.61990, 0.00813, 0.08207, 0.03464
675, 28633, 36.63498, 42.91965, 52.16781, 28.20434, -0.77692, 2.72221, 9.61511, 0.00813, 0.08234, 0.03384
676, 28678, 36.63498, 42.91965, 52.16781, 28.20434, -0.71467, 2.77727, 9.59237, 0.00853, 0.08047, 0.03277
677, 28719, 36.63498, 42.91965, 52.16781, 28.20434, -0.73981, 2.72700, 9.59117, 0.00893, 0.08047, 0.03477
678, 28760, 36.63498, 42.91965, 52.16781, 28.20434, -0.73143, 2.76411, 9.62110, 0.00733, 0.07954, 0.03238
679, 28801, 36.63498, 42.91965, 52.16781, 28.20434, -0.73622, 2.74495, 9.60554, 0.00679, 0.08087, 0.03691
680, 28842, 36.63498, 42.91965, 52.16781, 28.20434, -0.69192, 2.72580, 9.60793, 0.00640, 0.07914, 0.03344
681, 28887, 36.63498, 42.91965, 52.16781, 28.20434, -0.73382, 2.73538, 9.55646, 0.00693, 0.08100, 0.03291
682, 28928, 36.63498, 42.91965, 52.16781, 28.20434, -0.71826, 2.69587, 9.62230, 0.00520, 0.08167, 0.03491
683, 28969, 36.63498, 42.91965, 52.16781, 28.20434, -0.69192, 2.72580, 9.56962, 0.00973, 0.07994, 0.03464
684, 29010, 36.63498, 42.91965, 52.16781, 28.20434, -0.75058, 2.69228, 9.59237, 0.00653, 0.07954, 0.03677
685, 29051, 36.63498, 42.91965, 52.16781, 28.20434, -0.74460, 2.72580, 9.61990, 0.00719, 0.08180, 0.03504
686, 29095, 36.63498, 42.91965, 52.16781, 28.20434, -0.70749, 2.73298, 9.58758, 0.00839, 0.07941, 0.03437
687, 29136, 36.63498, 42.91965, 52.16781, 28.20434, -0.74699, 2.70425, 9.58758, 0.00733, 0.08047, 0.03397
688, 29177, 36.63498, 42.91965, 52.16781, 28.20434, -0.70390, 2.75932, 9.59716, 0.00773, 0.08194, 0.03264
689, 29218, 36.63498, 42.91965, 52.16781, 28.20434, -0.73263, 2.72700, 9.59476, 0.00839, 0.07847, 0.03384
690, 29259, 36.63498, 42.91965, 52.16781, 28.20434, -0.70030, 2.74615, 9.57082, 0.00719, 0.07954, 0.03517
691, 29313, 36.63498, 42.91965, 52.16781, 28.20434, -0.74460, 2.73538, 9.60075, 0.00759, 0.07994, 0.03104
692, 29352, 36.63498, 42.91965, 52.16781, 28.20434, -0.76495, 2.74136, 9.58519, 0.00666, 0.08060, 0.03344
693, 29392, 36.63498, 42.91965, 52.16781, 28.20434, -0.71228, 2.72819, 9.56124, 0.00706, 0.07994, 0.03397
694, 29432, 36.63498, 42.91965, 52.16781, 28.20434, -0.70150, 2.72700, 9.60314, 0.00640, 0.08007, 0.03331
695, 29472, 36.63498, 42.91965, 52.16781, 28.20434, -0.68474, 2.76530, 9.54808, 0.00853, 0.08114, 0.03317
696, 29515, 36.63498, 42.91965, 52.16781, 28.20434, -0.76854, 2.68869, 9.58878, 0.00773, 0.08034, 0.03584
697, 29555, 36.63498, 42.91965, 52.16781, 28.20434, -0.70150, 2.76291, 9.62230, 0.00600, 0.08100, 0.03384
698, 29595, 36.63498, 42.91965, 52.16781, 28.20434, -0.72903, 2.76291, 9.54089, 0.00933, 0.08247, 0.03504
699, 29635, 36.63498, 42.91965, 52.16781, 28.20434, -0.72425, 2.73657, 9.64025, 0.00946, 0.08100, 0.03424
700, 29678, 36.63498, 42.91965, 52.16781, 28.20434, -0.72305, 2.75094, 9.59716, 0.00813, 0.07941, 0.03491
701, 29718, 36.63498, 42.91965, 52.16781, 28.20434, -0.71826, 2.71862, 9.63786, 0.00693, 0.08087, 0.03397
702, 29758, 36.63498, 42.91965, 52.16781, 28.20434, -0.70509, 2.74974, 9.57082, 0.00746, 0.07861, 0.03477
703, 29798, 36.63498, 42.91965, 52.16781, 28.20434, -0.72065, 2.72221, 9.63906, 0.00560, 0.08154, 0.03464
704, 29838, 36.63498, 42.91965, 52.16781, 28.20434, -0.70749, 2.72221, 9.56962, 0.00853, 0.07914, 0.03331
705, 29881, 36.63498, 42.91965, 52.16781, 28.20434, -0.72784, 2.75333, 9.62948, 0.00706, 0.08127, 0.03304
706, 29921, 36.63498, 42.91965, 52.16781, 28.20434, -0.75298, 2.77129, 9.60314, 0.00973, 0.07927, 0.03597
707, 29961, 36.63498, 42.91965, 52.16781, 28.20434, -0.71946, 2.74974, 9.54927, 0.00546, 0.07821, 0.03411
708, 30001, 36.63498, 42.91965, 52.16781, 28.20434, -0.71228, 2.71862, 9.63187, 0.00799, 0.08140, 0.03544
709, 30041, 36.63498, 42.91965, 52.16781, 28.20434, -0.74819, 2.75213, 9.59835, 0.00786, 0.07981, 0.03477
710, 30084, 36.63498, 42.91965, 52.16781, 28.20434, -0.70270, 2.70665, 9.63307, 0.00653, 0.08114, 0.03371
711, 30124, 36.63498, 42.91965, 52.16781, 28.20434, -0.70868, 2.79044, 9.56005, 0.00626, 0.08300, 0.03304
712, 30164, 36.63498, 42.91965, 52.16781, 28.20434, -0.75776, 2.74615, 9.56124, 0.00813, 0.08140, 0.03557
713, 30204, 36.63498, 42.91965, 52.16781, 28.20434, -0.68833, 2.71742, 9.63906, 0.00679, 0.08207, 0.03331
714, 30244, 36.63498, 42.91965, 52.16781, 28.20434, -0.72305, 2.69827, 9.63068, 0.00719, 0.08127, 0.03384
715, 30287, 36.63498, 42.91965, 52.16781, 28.20434, -0.76016, 2.77608, 9.56005, 0.00759, 0.07887, 0.03371
716, 30327, 36.63498, 42.91965, 52.16781, 28.20434, -0.72065, 2.77009, 9.58638, 0.00826, 0.08034, 0.03411
717, 30367, 36.63498, 42.91965, 52.16781, 28.20434, -0.73023, 2.71383, 9.61990, 0.00626, 0.07861, 0.03371
718, 30407, 36.63498, 42.91965, 52.16781, 28.20434, -0.69432, 2.71263, 9.60075, 0.00813, 0.07847, 0.03557
719, 30447, 36.63498, 42.91965, 52.16781, 28.20434, -0.72544, 2.69827, 9.57202, 0.00773, 0.08047, 0.03611
720, 30490, 36.63498, 42.91965, 52.16781, 28.20434, -0.72664, 2.72340, 9.60913, 0.00640, 0.08060, 0.03357
721, 30530, 36.63498, 42.91965, 52.16781, 28.20434, -0.72784, 2.71024, 9.62110, 0.00799, 0.07981, 0.03264
722, 30570, 36.63498, 42.91965, 52.16781, 28.20434, -0.69911, 2.74854, 9.63187, 0.00759, 0.08207, 0.03344
723, 30610, 36.63498, 42.91965, 52.16781, 28.20434, -0.69312, 2.75213, 9.58040, 0.00719, 0.08034, 0.03238
724, 30653, 36.63498, 42.91965, 52.16781, 28.20434, -0.73622, 2.73059, 9.59237, 0.00666, 0.07834, 0.03424
725, 30693, 36.63498, 42.91965, 52.16781, 28.20434, -0.73741, 2.75812, 9.58758, 0.00919, 0.08220, 0.03384
726, 30733, 36.63498, 42.91965, 52.16781, 28.20434, -0.72544, 2.75333, 9.63307, 0.00733, 0.08047, 0.03477
727, 30773, 36.63498, 42.91965, 52.16781, 28.20434, -0.74579, 2.73298, 9.59357, 0.00679, 0.08114, 0.03371
728, 30813, 36.63498, 42.91965, 52.16781, 28.20434, -0.74220, 2.73178, 9.58040, 0.00746, 0.07861, 0.03384
729, 30865, 36.63498, 42.91965, 52.16781, 28.20434, -0.73861, 2.73657, 9.60075, 0.00719, 0.08074, 0.03464
730, 30906, 36.63498, 42.91965, 52.16781, 28.20434, -0.72903, 2.70904, 9.61152, 0.00666, 0.07941, 0.03611
731, 30947, 36.63498, 42.91965, 52.16781, 28.20434, -0.71228, 2.74016, 9.60075, 0.00746, 0.08087, 0.03344
732, 30988, 36.63498, 42.91965, 52.16781, 28.20434, -0.72903, 2.72460, 9.63068, 0.00693, 0.08167, 0.03331
733, 31029, 36.63498, 42.91965, 52.16781, 28.20434, -0.74819, 2.74495, 9.55526, 0.00893, 0.08021, 0.03397
734, 31073, 36.63498, 42.91965, 52.16781, 28.20434, -0.73263, 2.72819, 9.60793, 0.00866, 0.07994, 0.03557
735, 31114, 36.63498, 42.91965, 52.16781, 28.20434, -0.75058, 2.72939, 9.66060, 0.00693, 0.08100, 0.03384
736, 31155, 36.63498, 42.91965, 52.16781, 28.20434, -0.69671, 2.73059, 9.60314, 0.00866, 0.08114, 0.03384
737, 31196, 36.63498, 42.91965, 52.16781, 28.20434, -0.73502, 2.71981, 9.65582, 0.00733, 0.07967, 0.03571
738, 31237, 36.63498, 42.91965, 52.16781, 28.20434, -0.71108, 2.73178, 9.56603, 0.00640, 0.08034, 0.03557
739, 31281, 36.63498, 42.91965, 52.16781, 28.20434, -0.69911, 2.73418, 9.56843, 0.00866, 0.08060, 0.03451
740, 31322, 36.63498, 42.91965, 52.16781, 28.20434, -0.74340, 2.73418, 9.56364, 0.00679, 0.08100, 0.03344
741, 31363, 36.63498, 42.91965, 52.16781, 28.20434, -0.75178, 2.71981, 9.69053, 0.00773, 0.07914, 0.03264
742, 31404, 36.63498, 42.91965, 52.16781, 28.20434, -0.70988, 2.69108, 9.60793, 0.00786, 0.08194, 0.03251
743, 31448, 36.63498, 42.91965, 52.16781, 28.20434, -0.74460, 2.71862, 9.60195, 0.00893, 0.08127, 0.03397
744, 31489, 36.63498, 42.91965, 52.16781, 28.20434, -0.77572, 2.72939, 9.60793, 0.01026, 0.08114, 0.03597
745, 31530, 36.63498, 42.91965, 52.16781, 28.20434, -0.70270, 2.74974, 9.55287, 0.00826, 0.07994, 0.03304
746, 31571, 36.63498, 42.91965, 52.16781, 28.20434, -0.61052, 2.74016, 9.51935, 0.00786, 0.07861, 0.03357
747, 31612, 36.63498, 42.91965, 52.16781, 28.20434, -0.74699, 2.78924, 9.68215, 0.00893, 0.08287, 0.03158
748, 31656, 36.63498, 42.91965, 52.16781, 28.20434, -0.80445, 2.78446, 9.54927, 0.01026, 0.08274, 0.03397
749, 31697, 36.63498, 42.91965, 52.16781, 28.20434, -0.74939, 2.69467, 9.54927, 0.00586, 0.07834, 0.03224
750, 31738, 36.63498, 42.91965, 52.16781, 28.20434, -0.71108, 2.72939, 9.62948, 0.00773, 0.07927, 0.03584
751, 31779, 36.63498, 42.91965, 52.16781, 28.20434, -0.70868, 2.71383, 9.63307, 0.00640, 0.07861, 0.03424
752, 31820, 36.63498, 42.91965, 52.16781, 28.20434, -0.72425, 2.74854, 9.60434, 0.00719, 0.08114, 0.03437
753, 31864, 36.63498, 42.91965, 52.16781, 28.20434, -0.73861, 2.75453, 9.61033, 0.00906, 0.07967, 0.03277
754, 31905, 36.63498, 42.91965, 52.16781, 28.20434, -0.74460, 2.76650, 9.61631, 0.00906, 0.07967, 0.03411
755, 31946, 36.63498, 42.91965, 52.16781, 28.20434, -0.70629, 2.73777, 9.63187, 0.01039, 0.07914, 0.03424
756, 31987, 36.63498, 42.91965, 52.16781, 28.20434, -0.76495, 2.72221, 9.57800, 0.00733, 0.07927, 0.03597
757, 32028, 36.63498, 42.91965, 52.16781, 28.20434, -0.73263, 2.76770, 9.64265, 0.00853, 0.08007, 0.03464
758, 32072, 36.63498, 42.91965, 52.16781, 28.20434, -0.72305, 2.72460, 9.57920, 0.00706, 0.08100, 0.03224
759, 32113, 36.63498, 42.91965, 52.16781, 28.20434, -0.73382, 2.76650, 9.62469, 0.00586, 0.08007, 0.03584
760, 32154, 36.63498, 42.91965, 52.16781, 28.20434, -0.78051, 2.73657, 9.60673, 0.00853, 0.08087, 0.03464
761, 32195, 36.63498, 42.91965, 52.16781, 28.20434, -0.69073, 2.72939, 9.57082, 0.00866, 0.07954, 0.03251
762, 32236, 36.63498, 42.91965, 52.16781, 28.20434, -0.74460, 2.78805, 9.60913, 0.00866, 0.08180, 0.03331
763, 32280, 36.63498, 42.91965, 52.16781, 28.20434, -0.71108, 2.70066, 9.59955, 0.00719, 0.08154, 0.03224
764, 32329, 36.63498, 42.91965, 52.16781, 28.20434, -0.76375, 2.73178, 9.54927, 0.00959, 0.07994, 0.03451
765, 32370, 36.63498, 42.91965, 52.16781, 28.20434, -0.77333, 2.76770, 9.63546, 0.00746, 0.07914, 0.03517
766, 32411, 36.63498, 42.91965, 52.16781, 28.20434, -0.66559, 2.74136, 9.70490, 0.00706, 0.07887, 0.03304
767, 32465, 36.63498, 42.91965, 52.16781, 28.20434, -0.68474, 2.68031, 9.56364, 0.00733, 0.08074, 0.03384
768, 32506, 36.63498, 42.91965, 52.16781, 28.20434, -0.79009, 2.78206, 9.65821, 0.00893, 0.08154, 0.03251
769, 32547, 36.63498, 42.91965, 52.16781, 28.20434, -0.75896, 2.72700, 9.63666, 0.00839, 0.08034, 0.03611
770, 32588, 36.63498, 42.91965, 52.16781, 28.20434, -0.68235, 2.75812, 9.58998, 0.00719, 0.07994, 0.03557
771, 32629, 36.63498, 42.91965, 52.16781, 28.20434, -0.72544, 2.73657, 9.61751, 0.00866, 0.07954, 0.03184
772, 32673, 36.63498, 42.91965, 52.16781, 28.20434, -0.71228, 2.73059, 9.57202, 0.00866, 0.07821, 0.03304
773, 32714, 36.63498, 42.91965, 52.16781, 28.20434, -0.68235, 2.80960, 9.59716, 0.00719, 0.08021, 0.03264
774, 32755, 36.63498, 42.91965, 52.16781, 28.20434, -0.72784, 2.75453, 9.60314, 0.00826, 0.08100, 0.03384
775, 32796, 36.63498, 42.91965, 52.16781, 28.20434, -0.72065, 2.74615, 9.55287, 0.00906, 0.08021, 0.03477
776, 32837, 36.63498, 42.91965, 52.16781, 28.20434, -0.72784, 2.73777, 9.63427, 0.00719, 0.07874, 0.03198
777, 32882, 36.63498, 42.91965, 52.16781, 28.20434, -0.74220, 2.72580, 9.55646, 0.00706, 0.08074, 0.03584
778, 32923, 36.63498, 42.91965, 52.16781, 28.20434, -0.69192, 2.75932, 9.61033, 0.00653, 0.08074, 0.03397
779, 32964, 36.63498, 42.97074, 52.16781, 28.20434, -0.74939, 2.73897, 9.64983, 0.00839, 0.07981, 0.03371
780, 33005, 36.63498, 42.91965, 52.16781, 28.20434, -0.71228, 2.73777, 9.57561, 0.00613, 0.07941, 0.03517
781, 33046, 36.63498, 42.91965, 52.16781, 28.20434, -0.77692, 2.75094, 9.56603, 0.00813, 0.07954, 0.03277
782, 33091, 36.63498, 42.91965, 52.16781, 28.20434, -0.72664, 2.72939, 9.58878, 0.00693, 0.08180, 0.03224
783, 33132, 36.63498, 42.91965, 52.16781, 28.20434, -0.71347, 2.73538, 9.56603, 0.00733, 0.08114, 0.03251
784, 33173, 36.63498, 42.91965, 52.16781, 28.20434, -0.76255, 2.70186, 9.59237, 0.00640, 0.07701, 0.03504
785, 33214, 36.63498, 42.91965, 52.16781, 28.20434, -0.70629, 2.77608, 9.69412, 0.01079, 0.08007, 0.03331
786, 33255, 36.63498, 42.91965, 52.16781, 28.20434, -0.72664, 2.70545, 9.55885, 0.00533, 0.08047, 0.03411
787, 33300, 36.63498, 42.91965, 52.16781, 28.20434, -0.78889, 2.70665, 9.61631, 0.00679, 0.07847, 0.03571
788, 33341, 36.63498, 42.91965, 52.16781, 28.20434, -0.67756, 2.69707, 9.64504, 0.00893, 0.07954, 0.03424
789, 33382, 36.58389, 42.91965, 52.16781, 28.20434, -0.74220, 2.76530, 9.61871, 0.00759, 0.07967, 0.03224
790, 33423, 36.58389, 42.91965, 52.16781, 28.20434, -0.74819, 2.76291, 9.55646, 0.00480, 0.07861, 0.03464
791, 33467, 36.58389, 42.91965, 52.16781, 28.20434, -0.71347, 2.76889, 9.71447, 0.00666, 0.07874, 0.03357
792, 33508, 36.58389, 42.91965, 52.16781, 28.20434, -0.70390, 2.69108, 9.58160, 0.00853, 0.08140, 0.03491
793, 33549, 36.63498, 42.91965, 52.16781, 28.20434, -0.73143, 2.74854, 9.59237, 0.00813, 0.08260, 0.03357
794, 33590, 36.63498, 42.91965, 52.16781, 28.20434, -0.77093, 2.73657, 9.60673, 0.00946, 0.08234, 0.03291
795, 33631, 36.58389, 42.91965, 52.16781, 28.20434, -0.69312, 2.74495, 9.56484, 0.00773, 0.08087, 0.03477
796, 33676, 36.63498, 42.91965, 52.16781, 28.20434, -0.68354, 2.75213, 9.53371, 0.00973, 0.08074, 0.03317
797, 33717, 36.63498, 42.91965, 52.16781, 28.20434, -0.80685, 2.71502, 9.63068, 0.00813, 0.08180, 0.03517
798, 33758, 36.63498, 42.91965, 52.16781, 28.20434, -0.66798, 2.67791, 9.66779, 0.00693, 0.08074, 0.03397
799, 33799, 36.63498, 42.91965, 52.16781, 28.20434, -0.79009, 2.69946, 9.61511, 0.00919, 0.08194, 0.03291
800, 33840, 36.63498, 42.91965, 52.16781, 28.20434, -0.72664, 2.77249, 9.59596, 0.00813, 0.07887, 0.03544
801, 33884, 36.63498, 42.91965, 52.16781, 28.20434, -0.73382, 2.71862, 9.56364, 0.00853, 0.07927, 0.03304
802, 33925, 36.63498, 42.91965, 52.16781, 28.20434, -0.74340, 2.73418, 9.64504, 0.00933, 0.08207, 0.03531
803, 33966, 36.63498, 42.91965, 52.16781, 28.20434, -0.71946, 2.69467, 9.65342, 0.01079, 0.07967, 0.03371
804, 34007, 36.63498, 42.91965, 52.16781, 28.20434, -0.74699, 2.74495, 9.53970, 0.00733, 0.08114, 0.03411
805, 34048, 36.63498, 42.91965, 52.16781, 28.20434, -0.71228, 2.73298, 9.59955, 0.00746, 0.08114, 0.03291
806, 34102, 36.63498, 42.91965, 52.16781, 28.20434, -0.75657, 2.74495, 9.60793, 0.00706, 0.08154, 0.03491
807, 34141, 36.63498, 42.91965, 52.16781, 28.20434, -0.71706, 2.73897, 9.60793, 0.00879, 0.08247, 0.03491
808, 34181, 36.63498, 42.91965, 52.16781, 28.20434, -0.72425, 2.75213, 9.63666, 0.00573, 0.07887, 0.03384
809, 34221, 36.63498, 42.91965, 52.16781, 28.20434, -0.70868, 2.74854, 9.60673, 0.00866, 0.08087, 0.03424
810, 34264, 36.63498, 42.91965, 52.16781, 28.20434, -0.77333, 2.76051, 9.53611, 0.00813, 0.07981, 0.03264
811, 34304, 36.63498, 42.91965, 52.16781, 28.20434, -0.72784, 2.73059, 9.60314, 0.00746, 0.07941, 0.03384
812, 34344, 36.63498, 42.91965, 52.16781, 28.20434, -0.73622, 2.71024, 9.59117, 0.00653, 0.07821, 0.03517
813, 34384, 36.63498, 42.91965, 52.16781, 28.20434, -0.72903, 2.77129, 9.59357, 0.00706, 0.08047, 0.03397
814, 34424, 36.63498, 42.91965, 52.16781, 28.20434, -0.73622, 2.73897, 9.59835, 0.00759, 0.08260, 0.03371
815, 34467, 36.63498, 42.91965, 52.16781, 28.20434, -0.73382, 2.73298, 9.60793, 0.00719, 0.08220, 0.03264
816, 34507, 36.63498, 42.91965, 52.16781, 28.20434, -0.72903, 2.74016, 9.56244, 0.00786, 0.08007, 0.03238
817, 34547, 36.63498, 42.91965, 52.16781, 28.20434, -0.71587, 2.77129, 9.57800, 0.00759, 0.07967, 0.03411
818, 34587, 36.63498, 42.91965, 52.16781, 28.20434, -0.74460, 2.74136, 9.59955, 0.00640, 0.07887, 0.03517
819, 34627, 36.63498, 42.91965, 52.16781, 28.20434, -0.73741, 2.76411, 9.59476, 0.00866, 0.08180, 0.03331
820, 34670, 36.63498, 42.91965, 52.16781, 28.20434, -0.72425, 2.72939, 9.56962, 0.00826, 0.08207, 0.03491
821, 34710, 36.63498, 42.91965, 52.16781, 28.20434, -0.70509, 2.74974, 9.57202, 0.00813, 0.08154, 0.03397
822, 34750, 36.63498, 42.91965, 52.16781, 28.20434, -0.69671, 2.72700, 9.56723, 0.00919, 0.07901, 0.03517
823, 34790, 36.63498, 42.91965, 52.16781, 28.20434, -0.69192, 2.74615, 9.63187, 0.00866, 0.07727, 0.03451
824, 34830, 36.63498, 42.91965, 52.16781, 28.20434, -0.76136, 2.72580, 9.64145, 0.00613, 0.08007, 0.03384
825, 34873, 36.63498, 42.97074, 52.16781, 28.20434, -0.72185, 2.76051, 9.61511, 0.00759, 0.07981, 0.03384
826, 34913, 36.63498, 42.91965, 52.16781, 28.20434, -0.72305, 2.72580, 9.60075, 0.00533, 0.07941, 0.03437
827, 34953, 36.63498, 42.91965, 52.16781, 28.20434, -0.73263, 2.71742, 9.60075, 0.00773, 0.08021, 0.03344
828, 34993, 36.63498, 42.91965, 52.16781, 28.20434, -0.72784, 2.73418, 9.61033, 0.00906, 0.07794, 0.03291
829, 35033, 36.63498, 42.91965, 52.16781, 28.20434, -0.73502, 2.73298, 9.59237, 0.00600, 0.08127, 0.03344
830, 35076, 36.63498, 42.91965, 52.16781, 28.20434, -0.79248, 2.70665, 9.61511, 0.00759, 0.08114, 0.03371
831, 35116, 36.63498, 42.91965, 52.16781, 28.20434, -0.70749, 2.76411, 9.61631, 0.01066, 0.08021, 0.03357
832, 35156, 36.63498, 42.91965, 52.16781, 28.20434, -0.70988, 2.72700, 9.61990, 0.00640, 0.07901, 0.03384
833, 35196, 36.63498, 42.91965, 52.16781, 28.20434, -0.73382, 2.73657, 9.57202, 0.00693, 0.08194, 0.03424
834, 35239, 36.63498, 42.91965, 52.16781, 28.20434, -0.74819, 2.73178, 9.58040, 0.00759, 0.07981, 0.03424
835, 35279, 36.63498, 42.91965, 52.16781, 28.20434, -0.75058, 2.74495, 9.58160, 0.00693, 0.08074, 0.03344
836, 35319, 36.63498, 42.91965, 52.16781, 28.20434, -0.69192, 2.75213, 9.57441, 0.00879, 0.07941, 0.03451
837, 35359, 36.63498, 42.91965, 52.16781, 28.20434, -0.74220, 2.75573, 9.63906, 0.00906, 0.07701, 0.03357
838, 35399, 36.63498, 42.91965, 52.16781, 28.20434, -0.75537, 2.73418, 9.54808, 0.00959, 0.08047, 0.03304
839, 35442, 36.63498, 42.91965, 52.16781, 28.20434, -0.75657, 2.72221, 9.61751, 0.00759, 0.08060, 0.03451
840, 35482, 36.63498, 42.91965, 52.16781, 28.20434, -0.75417, 2.69946, 9.58279, 0.00986, 0.08047, 0.03504
841, 35522, 36.63498, 42.91965, 52.16781, 28.20434, -0.72544, 2.73178, 9.58638, 0.00773, 0.08034, 0.03251
842, 35562, 36.63498, 42.91965, 52.16781, 28.20434, -0.72544, 2.75812, 9.61511, 0.00640, 0.08074, 0.03371
843, 35602, 36.63498, 42.91965, 52.16781, 28.20434, -0.73622, 2.72580, 9.58399, 0.00786, 0.07874, 0.03464
844, 35654, 36.63498, 42.91965, 52.16781, 28.20434, -0.68833, 2.73178, 9.61033, 0.00853, 0.08100, 0.03357
845, 35695, 36.63498, 42.91965, 52.16781, 28.20434, -0.70270, 2.75932, 9.62469, 0.00786, 0.08260, 0.03477
846, 35736, 36.63498, 42.91965, 52.16781, 28.20434, -0.74101, 2.70305, 9.56124, 0.00933, 0.07941, 0.03291
847, 35777, 36.63498, 42.91965, 52.16781, 28.20434, -0.73741, 2.72340, 9.59237, 0.00799, 0.08100, 0.03544
848, 35818, 36.63498, 42.91965, 52.16781, 28.20434, -0.71826, 2.71622, 9.61511, 0.00826, 0.07834, 0.03344
849, 35862, 36.63498, 42.91965, 52.16781, 28.20434, -0.74579, 2.76171, 9.55765, 0.00826, 0.07967, 0.03397
850, 35903, 36.63498, 42.91965, 52.16781, 28.20434, -0.74101, 2.75453, 9.61511, 0.00733, 0.08340, 0.03264
851, 35944, 36.63498, 42.91965, 52.16781, 28.20434, -0.75657, 2.74136, 9.61751, 0.00866, 0.07901, 0.03424
852, 35985, 36.63498, 42.91965, 52.16781, 28.20434, -0.73981, 2.71862, 9.55885, 0.00733, 0.08047, 0.03291
853, 36026, 36.63498, 42.91965, 52.16781, 28.20434, -0.71946, 2.75094, 9.57561, 0.00826, 0.07927, 0.03291
854, 36065, 36.63498, 42.91965, 52.16781, 28.20434, -0.72185, 2.70305, 9.59716, 0.00799, 0.07981, 0.03357
855, 36106, 36.63498, 42.91965, 52.16781, 28.20434, -0.71467, 2.68270, 9.60075, 0.00893, 0.07901, 0.03411
856, 36147, 36.63498, 42.91965, 52.16781, 28.20434, -0.73143, 2.73538, 9.56124, 0.00679, 0.07927, 0.03464
857, 36188, 36.63498, 42.91965, 52.16781, 28.20434, -0.72544, 2.73777, 9.59596, 0.00799, 0.08220, 0.03437
858, 36232, 36.63498, 42.91965, 52.16781, 28.20434, -0.72903, 2.74256, 9.61392, 0.00893, 0.07754, 0.03397
859, 36273, 36.63498, 42.91965, 52.16781, 28.20434, -0.74819, 2.76051, 9.59476, 0.00733, 0.08154, 0.03238
860, 36314, 36.63498, 42.91965, 52.16781, 28.20434, -0.72425, 2.73538, 9.61511, 0.00773, 0.07954, 0.03291
861, 36355, 36.63498, 42.97074, 52.16781, 28.20434, -0.73382, 2.71024, 9.60434, 0.00746, 0.07794, 0.03451
862, 36396, 36.63498, 42.91965, 52.16781, 28.20434, -0.73263, 2.75094, 9.58758, 0.00866, 0.07821, 0.03291
863, 36440, 36.63498, 42.91965, 52.16781, 28.20434, -0.74460, 2.74854, 9.61152, 0.00653, 0.08114, 0.03291
864, 36481, 36.63498, 42.91965, 52.16781, 28.20434, -0.73263, 2.70904, 9.60913, 0.00786, 0.08007, 0.03477
865, 36522, 36.63498, 42.91965, 52.16781, 28.20434, -0.76854, 2.73657, 9.60075, 0.00746, 0.07941, 0.03517
866, 36563, 36.63498, 42.91965, 52.16781, 28.20434, -0.71826, 2.69946, 9.62110, 0.00666, 0.08034, 0.03411
867, 36604, 36.63498, 42.91965, 52.16781, 28.20434, -0.73382, 2.75333, 9.56603, 0.00839, 0.07967, 0.03424
868, 36648, 36.63498, 42.91965, 52.16781, 28.20434, -0.74340, 2.72580, 9.55765, 0.00826, 0.07967, 0.03357
869, 36689, 36.63498, 42.91965, 52.16781, 28.20434, -0.73741, 2.73059, 9.59716, 0.00733, 0.08021, 0.03464
870, 36730, 36.63498, 42.91965, 52.16781, 28.20434, -0.72664, 2.77009, 9.59117, 0.00746, 0.08180, 0.03357
871, 36771, 36.63498, 42.91965, 52.16781, 28.20434, -0.73382, 2.74735, 9.58638, 0.00506, 0.08154, 0.03464
872, 36812, 36.63498, 42.91965, 52.16781, 28.20434, -0.70749, 2.72819, 9.61033, 0.00679, 0.08034, 0.03424
873, 36856, 36.63498, 42.91965, 52.16781, 28.20434, -0.72305, 2.72580, 9.61272, 0.00706, 0.08007, 0.03291
874, 36897, 36.63498, 42.91965, 52.16781, 28.20434, -0.72305, 2.74136, 9.60314, 0.00893, 0.07941, 0.03344
875, 36938, 36.63498, 42.91965, 52.16781, 28.20434, -0.75058, 2.73538, 9.58998, 0.00746, 0.07981, 0.03224
876, 36979, 36.63498, 42.91965, 52.16781, 28.20434, -0.72544, 2.73777, 9.59237, 0.00799, 0.07994, 0.03531
877, 37031, 36.63498, 42.91965, 52.16781, 28.20434, -0.75776, 2.73298, 9.63427, 0.00706, 0.08087, 0.03317
878, 37072, 36.63498, 42.91965, 52.16781, 28.20434, -0.73981, 2.76411, 9.63427, 0.00879, 0.07967, 0.03504
879, 37113, 36.63498, 42.91965, 52.16781, 28.20434, -0.71587, 2.70665, 9.61990, 0.00666, 0.07994, 0.03238
880, 37154, 36.63498, 42.91965, 52.16781, 28.20434, -0.74460, 2.76889, 9.56962, 0.00653, 0.08194, 0.03517
881, 37195, 36.63498, 42.91965, 52.16781, 28.20434, -0.68953, 2.71862, 9.60673, 0.00826, 0.07887, 0.03411
882, 37249, 36.63498, 42.91965, 52.16781, 28.20434, -0.74101, 2.73418, 9.63068, 0.00906, 0.07994, 0.03277
883, 37290, 36.63498, 42.91965, 52.16781, 28.20434, -0.71108, 2.73418, 9.60314, 0.00759, 0.08021, 0.03517
884, 37331, 36.63498, 42.91965, 52.16781, 28.20434, -0.75537, 2.76051, 9.64744, 0.00813, 0.07834, 0.03344
885, 37372, 36.63498, 42.91965, 52.16781, 28.20434, -0.73981, 2.74854, 9.58758, 0.00919, 0.08007, 0.03424
886, 37413, 36.63498, 42.91965, 52.16781, 28.20434, -0.68594, 2.71263, 9.53850, 0.00866, 0.08047, 0.03491
887, 37457, 36.63498, 42.91965, 52.16781, 28.20434, -0.69671, 2.73777, 9.56962, 0.00893, 0.07967, 0.03384
888, 37498, 36.63498, 42.91965, 52.16781, 28.20434, -0.74101, 2.74136, 9.58878, 0.00799, 0.08087, 0.03451
889, 37539, 36.63498, 42.91965, 52.16781, 28.20434, -0.78171, 2.70784, 9.60913, 0.00906, 0.07967, 0.03517
890, 37580, 36.63498, 42.91965, 52.16781, 28.20434, -0.72305, 2.72580, 9.55765, 0.00746, 0.07941, 0.03371
891, 37621, 36.63498, 42.91965, 52.16781, 28.20434, -0.74579, 2.73298, 9.62589, 0.00706, 0.08047, 0.03504
892, 37666, 36.63498, 42.91965, 52.16781, 28.20434, -0.73263, 2.71742, 9.58998, 0.00759, 0.07981, 0.03331
893, 37707, 36.63498, 42.91965, 52.16781, 28.20434, -0.71706, 2.73538, 9.57681, 0.00919, 0.08074, 0.03437
894, 37748, 36.63498, 42.91965, 52.16781, 28.20434, -0.74819, 2.71263, 9.64624, 0.01013, 0.08034, 0.03517
895, 37789, 36.63498, 42.91965, 52.16781, 28.20434, -0.72185, 2.74495, 9.60314, 0.00906, 0.08140, 0.03304
896, 37830, 36.63498, 42.91965, 52.16781, 28.20434, -0.72425, 2.74974, 9.66180, 0.00826, 0.07861, 0.03451
897, 37875, 36.63498, 42.91965, 52.16781, 28.20434, -0.73263, 2.73897, 9.54568, 0.00986, 0.08167, 0.03384
898, 37916, 36.63498, 42.91965, 52.16781, 28.20434, -0.74460, 2.72101, 9.56603, 0.00586, 0.07994, 0.03397
899, 37957, 36.63498, 42.91965, 52.16781, 28.20434, -0.68714, 2.73298, 9.66300, 0.00799, 0.07794, 0.03477
900, 37998, 36.63498, 42.91965, 52.16781, 28.20434, -0.70390, 2.72460, 9.55406, 0.00493, 0.08021, 0.03557
901, 38043, 36.63498, 42.91965, 52.16781, 28.20434, -0.71347, 2.75692, 9.65103, 0.00666, 0.07967, 0.03464
902, 38084, 36.63498, 42.91965, 52.16781, 28.20434, -0.74579, 2.77249, 9.61033, 0.00906, 0.07874, 0.03544
903, 38125, 36.63498, 42.91965, 52.16781, 28.20434, -0.77812, 2.76411, 9.63068, 0.00786, 0.08140, 0.03397
904, 38166, 36.63498, 42.91965, 52.16781, 28.20434, -0.69073, 2.70904, 9.59357, 0.00866, 0.08114, 0.03464
905, 38207, 36.63498, 42.91965, 52.16781, 28.20434, -0.69911, 2.72939, 9.58160, 0.00799, 0.07981, 0.03464
906, 38252, 36.63498, 42.91965, 52.16781, 28.20434, -0.73741, 2.73897, 9.61631, 0.00679, 0.08021, 0.03397
907, 38293, 36.63498, 42.91965, 52.16781, 28.20434, -0.74819, 2.70305, 9.59596, 0.00733, 0.07927, 0.03291
908, 38334, 36.63498, 42.91965, 52.16781, 28.20434, -0.78650, 2.74016, 9.59955, 0.00933, 0.08127, 0.03371
909, 38375, 36.63498, 42.91965, 52.16781, 28.20434, -0.73502, 2.76530, 9.55047, 0.00866, 0.08167, 0.03397
910, 38416, 36.63498, 42.91965, 52.16781, 28.20434, -0.76375, 2.73059, 9.59476, 0.00546, 0.08047, 0.03464
911, 38461, 36.63498, 42.91965, 52.16781, 28.20434, -0.71347, 2.73657, 9.60793, 0.00759, 0.08087, 0.03477
912, 38502, 36.63498, 42.91965, 52.16781, 28.20434, -0.72664, 2.75453, 9.60434, 0.00946, 0.08180, 0.03371
913, 38543, 36.63498, 42.91965, 52.16781, 28.20434, -0.73741, 2.73777, 9.59357, 0.00786, 0.08007, 0.03477
914, 38584, 36.63498, 42.91965, 52.16781, 28.20434, -0.69911, 2.76171, 9.60913, 0.00866, 0.08034, 0.03357
915, 38625, 36.63498, 42.91965, 52.16781, 28.20434, -0.75178, 2.74136, 9.61392, 0.00853, 0.07954, 0.03437
916, 38669, 36.63498, 42.91965, 52.16781, 28.20434, -0.71587, 2.72221, 9.58279, 0.00746, 0.07914, 0.03371
917, 38710, 36.63498, 42.91965, 52.16781, 28.20434, -0.75058, 2.75812, 9.56723, 0.00866, 0.08060, 0.03397
918, 38751, 36.63498, 42.91965, 52.16781, 28.20434, -0.73023, 2.77129, 9.59476, 0.00986, 0.08114, 0.03557
919, 38792, 36.63498, 42.91965, 52.16781, 28.20434, -0.70270, 2.73777, 9.57202, 0.00986, 0.07847, 0.03424
920, 38846, 36.63498, 42.91965, 52.16781, 28.20434, -0.76974, 2.75094, 9.62708, 0.00666, 0.07941, 0.03451
921, 38885, 36.63498, 42.91965, 52.16781, 28.20434, -0.73263, 2.74735, 9.61511, 0.00719, 0.07954, 0.03571
922, 38925, 36.63498, 42.91965, 52.16781, 28.20434, -0.74579, 2.72580, 9.57202, 0.00813, 0.07994, 0.03264
923, 38965, 36.63498, 42.91965, 52.16781, 28.20434, -0.72664, 2.76889, 9.62589, 0.00746, 0.08074, 0.03317
924, 39005, 36.63498, 42.91965, 52.16781, 28.20434, -0.76016, 2.72580, 9.59835, 0.00600, 0.07967, 0.03464
925, 39048, 36.63498, 42.91965, 52.16781, 28.20434, -0.73622, 2.75213, 9.61033, 0.00813, 0.07914, 0.03451
926, 39088, 36.63498, 42.91965, 52.16781, 28.20434, -0.75178, 2.76051, 9.59596, 0.00919, 0.07941, 0.03371
927, 39128, 36.63498, 42.91965, 52.16781, 28.20434, -0.74939, 2.72580, 9.59835, 0.00773, 0.08140, 0.03451
928, 39168, 36.63498, 42.91965, 52.16781, 28.20434, -0.74579, 2.74256, 9.59955, 0.00666, 0.07927, 0.03491
929, 39208, 36.63498, 42.91965, 52.16781, 28.20434, -0.74939, 2.76411, 9.61152, 0.00759, 0.07901, 0.03357
930, 39251, 36.63498, 42.91965, 52.16781, 28.20434, -0.75178, 2.70904, 9.61033, 0.00813, 0.07941, 0.03544
931, 39291, 36.63498, 42.91965, 52.16781, 28.20434, -0.72784, 2.73897, 9.62230, 0.00879, 0.07887, 0.03624
932, 39331, 36.63498, 42.91965, 52.16781, 28.20434, -0.71587, 2.74615, 9.60075, 0.00786, 0.08021, 0.03397
933, 39371, 36.63498, 42.91965, 52.16781, 28.20434, -0.72784, 2.73298, 9.61511, 0.00773, 0.07887, 0.03211
934, 39411, 36.63498, 42.91965, 52.16781, 28.20434, -0.71587, 2.74974, 9.56364, 0.00826, 0.08021, 0.03344
935, 39454, 36.63498, 42.91965, 52.16781, 28.20434, -0.71706, 2.78685, 9.60793, 0.00919, 0.08207, 0.03464
936, 39494, 36.63498, 42.91965, 52.16781, 28.20434, -0.70150, 2.74495, 9.61392, 0.00853, 0.07967, 0.03371
937, 39534, 36.63498, 42.91965, 52.16781, 28.20434, -0.74699, 2.72340, 9.60075, 0.00826, 0.07901, 0.03344
938, 39574, 36.63498, 42.91965, 52.16781, 28.20434, -0.75537, 2.71383, 9.57561, 0.00733, 0.08114, 0.03371
939, 39614, 36.63498, 42.91965, 52.16781, 28.20434, -0.73861, 2.73059, 9.61751, 0.00640, 0.08034, 0.03464
940, 39657, 36.63498, 42.91965, 52.16781, 28.20434, -0.74220, 2.71862, 9.54808, 0.00693, 0.07994, 0.03357
941, 39697, 36.63498, 42.91965, 52.16781, 28.20434, -0.70030, 2.74974, 9.58279, 0.00666, 0.08114, 0.03451
942, 39737, 36.63498, 42.91965, 52.16781, 28.20434, -0.76495, 2.74735, 9.59476, 0.00719, 0.07834, 0.03397
943, 39777, 36.63498, 42.91965, 52.16781, 28.20434, -0.73622, 2.75573, 9.65462, 0.00759, 0.07727, 0.03291
944, 39820, 36.63498, 42.91965, 52.16781, 28.20434, -0.71946, 2.71263, 9.61631, 0.00786, 0.07941, 0.03384
945, 39860, 36.63498, 42.91965, 52.16781, 28.25543, -0.72544, 2.77249, 9.55167, 0.00600, 0.08087, 0.03264
946, 39900, 36.63498, 42.91965, 52.16781, 28.20434, -0.73382, 2.71383, 9.62469, 0.00906, 0.08047, 0.03277
947, 39940, 36.63498, 42.91965, 52.16781, 28.20434, -0.73981, 2.69228, 9.56603, 0.00799, 0.07994, 0.03531
948, 39980, 36.63498, 42.91965, 52.16781, 28.20434, -0.76016, 2.76291, 9.62230, 0.00613, 0.08127, 0.03291
949, 40023, 36.63498, 42.91965, 52.16781, 28.20434, -0.76136, 2.72700, 9.55885, 0.00919, 0.07941, 0.03544
950, 40063, 36.63498, 42.91965, 52.16781, 28.20434, -0.73741, 2.73897, 9.57681, 0.00653, 0.07914, 0.03331
951, 40103, 36.63498, 42.91965, 52.16781, 28.20434, -0.72784, 2.71981, 9.59117, 0.00733, 0.07914, 0.03424
952, 40143, 36.63498, 42.91965, 52.16781, 28.20434, -0.71826, 2.70425, 9.57082, 0.00733, 0.07781, 0.03397
953, 40183, 36.63498, 42.91965, 52.16781, 28.20434, -0.71108, 2.74735, 9.61871, 0.00786, 0.08127, 0.03464
954, 40226, 36.63498, 42.91965, 52.16781, 28.20434, -0.72065, 2.70665, 9.65222, 0.00693, 0.08007, 0.03584
955, 40266, 36.63498, 42.91965, 52.16781, 28.20434, -0.71228, 2.72580, 9.56843, 0.00666, 0.08087, 0.03637
956, 40306, 36.63498, 42.91965, 52.16781, 28.20434, -0.77333, 2.73538, 9.59117, 0.00733, 0.07914, 0.03464
957, 40346, 36.63498, 42.91965, 52.16781, 28.20434, -0.71228, 2.70784, 9.64025, 0.00853, 0.08007, 0.03424
958, 40386, 36.63498, 42.91965, 52.16781, 28.20434, -0.73023, 2.75094, 9.57441, 0.00786, 0.08007, 0.03424
959, 40438, 36.63498, 42.91965, 52.16781, 28.20434, -0.71467, 2.76650, 9.58638, 0.00853, 0.07914, 0.03371
960, 40479, 36.63498, 42.91965, 52.16781, 28.20434, -0.75776, 2.72460, 9.56124, 0.00879, 0.08180, 0.03624
961, 40520, 36.63498, 42.91965, 52.16781, 28.20434, -0.71228, 2.72939, 9.61152, 0.00693, 0.08154, 0.03504
962, 40561, 36.63498, 42.91965, 52.16781, 28.20434, -0.74579, 2.77368, 9.60434, 0.00879, 0.07941, 0.03291
963, 40602, 36.63498, 42.91965, 52.16781, 28.20434, -0.71228, 2.76530, 9.63068, 0.00826, 0.08154, 0.03344
964, 40646, 36.63498, 42.91965, 52.16781, 28.20434, -0.74699, 2.76291, 9.56962, 0.00799, 0.08021, 0.03411
965, 40687, 36.63498, 42.91965, 52.16781, 28.20434, -0.74819, 2.73178, 9.63187, 0.00746, 0.08207, 0.03424
966, 40728, 36.63498, 42.91965, 52.16781, 28.20434, -0.74699, 2.72221, 9.57322, 0.00613, 0.07794, 0.03371
967, 40769, 36.63498, 42.91965, 52.16781, 28.20434, -0.74939, 2.71981, 9.60673, 0.00666, 0.07674, 0.03437
968, 40813, 36.63498, 42.91965, 52.16781, 28.20434, -0.75537, 2.70186, 9.57681, 0.00586, 0.07767, 0.03637
969, 40854, 36.63498, 42.91965, 52.16781, 28.20434, -0.64643, 2.70665, 9.56364, 0.01066, 0.07861, 0.03451
970, 40895, 36.63498, 42.97074, 52.16781, 28.20434, -0.88346, 2.70904, 9.56005, 0.00919, 0.07647, 0.03637
971, 40936, 36.63498, 42.97074, 52.16781, 28.20434, -0.64643, 2.69587, 9.63666, 0.00520, 0.07661, 0.03504
972, 40977, 36.63498, 42.97074, 52.16781, 28.20434, -0.73981, 2.72700, 9.58758, 0.00813, 0.08300, 0.03331
973, 41021, 36.63498, 42.97074, 52.16781, 28.20434, -0.76854, 2.82396, 9.60673, 0.00666, 0.08247, 0.03397
974, 41062, 36.63498, 42.97074, 52.16781, 28.20434, -0.74101, 2.82995, 9.55047, 0.00746, 0.08140, 0.03184
975, 41103, 36.63498, 42.97074, 52.16781, 28.20434, -0.65841, 2.79164, 9.53611, 0.00586, 0.08007, 0.03251
976, 41144, 36.63498, 42.97074, 52.16781, 28.20434, -0.70629, 2.77727, 9.62589, 0.00679, 0.08633, 0.03331
977, 41185, 36.63498, 42.97074, 52.16781, 28.20434, -0.79009, 2.75453, 9.54449, 0.00640, 0.08300, 0.03517
978, 41229, 36.63498, 42.97074, 52.16781, 28.20434, -0.72305, 2.73777, 9.62589, 0.00626, 0.08314, 0.03371
979, 41270, 36.63498, 42.91965, 52.16781, 28.20434, -0.67277, 2.76770, 9.61631, 0.00786, 0.08367, 0.03144
980, 41311, 36.63498, 42.91965, 52.16781, 28.20434, -0.76136, 2.73059, 9.58519, 0.00799, 0.08567, 0.03238
981, 41352, 36.63498, 42.91965, 52.16781, 28.20434, -0.80685, 2.74256, 9.58998, 0.00653, 0.08194, 0.03544
982, 41393, 36.63498, 42.91965, 52.16781, 28.20434, -0.69552, 2.71742, 9.68574, 0.00799, 0.07874, 0.03531
983, 41437, 36.63498, 42.91965, 52.16781, 28.20434, -0.74579, 2.69467, 9.63187, 0.00666, 0.08060, 0.03517
984, 41478, 36.63498, 42.91965, 52.16781, 28.20434, -0.78171, 2.66834, 9.62230, 0.00773, 0.07954, 0.03411
985, 41519, 36.63498, 42.91965, 52.16781, 28.20434, -0.76016, 2.65876, 9.61392, 0.00853, 0.07674, 0.03531
986, 41560, 36.63498, 42.91965, 52.16781, 28.20434, -0.70988, 2.67791, 9.65342, 0.00813, 0.07967, 0.03371
987, 41604, 36.63498, 42.91965, 52.16781, 28.20434, -0.76854, 2.73538, 9.61990, 0.00759, 0.08087, 0.03477
988, 41645, 36.63498, 42.91965, 52.16781, 28.25543, -0.78051, 2.70784, 9.58160, 0.00773, 0.07874, 0.03397
989, 41686, 36.63498, 42.91965, 52.16781, 28.20434, -0.73382, 2.73538, 9.65821, 0.00746, 0.07821, 0.03491
990, 41727, 36.63498, 42.91965, 52.16781, 28.20434, -0.67157, 2.73538, 9.56723, 0.00933, 0.08087, 0.03211
991, 41776, 36.63498, 42.91965, 52.16781, 28.20434, -0.77093, 2.73538, 9.54209, 0.00799, 0.08247, 0.03477
992, 41820, 36.63498, 42.91965, 52.16781, 28.20434, -0.72903, 2.75692, 9.59835, 0.00813, 0.08087, 0.03411
993, 41861, 36.63498, 42.91965, 52.16781, 28.20434, -0.70629, 2.72939, 9.60195, 0.00799, 0.07914, 0.03464
994, 41902, 36.63498, 42.91965, 52.16781, 28.20434, -0.69552, 2.69108, 9.42717, 0.01119, 0.08127, 0.03371
995, 41943, 36.63498, 42.91965, 52.16781, 28.20434, -0.70509, 2.74615, 9.62708, 0.00786, 0.07901, 0.03491
996, 41984, 36.63498, 42.91965, 52.16781, 28.20434, -0.72544, 2.64679, 9.58998, 0.00666, 0.07727, 0.03397
997, 42038, 36.63498, 42.91965, 52.16781, 28.20434, -0.76734, 2.70186, 9.42478, 0.00533, 0.07861, 0.03770
998, 42079, 36.58389, 42.91965, 52.16781, 28.20434, -0.70030, 2.81917, 9.74320, 0.00293, 0.07981, 0.03531
999, 42120, 36.58389, 42.91965, 52.16781, 28.20434, -0.78171, 2.78326, 9.78031, 0.01039, 0.07847, 0.03397
1000, 42161, 36.58389, 42.91965, 52.16781, 28.20434, -1.49997, 1.34554, 7.40646, 0.09206, -0.01639, 0.05089
1001, 42202, 36.58389, 42.91965, 52.16781, 28.20434, -0.89304, 2.38223, 9.09078, 0.13070, 0.03491, 0.04477
1002, 42246, 36.58389, 42.91965, 52.16781, 28.20434, -0.42258, 2.68749, 7.65546, 0.15828, -0.00226, 0.05529
1003, 42287, 36.37951, 42.81746, 52.16781, 28.20434, -0.43335, 3.25133, 10.03769, 0.01892, 0.06875, 0.03544
1004, 42328, 36.27732, 42.76637, 52.16781, 28.20434, -0.70270, 3.07176, 9.84376, 0.05076, 0.05796, 0.03757
1005, 42369, 36.22623, 42.76637, 52.16781, 28.20434, -0.53391, 2.69108, 8.91122, 0.01452, 0.07554, 0.03517
1006, 42410, 36.12404, 42.71527, 52.16781, 28.20434, -0.65601, 3.11007, 9.81264, 0.01013, 0.07128, 0.03611
1007, 42454, 35.91966, 42.71527, 52.16781, 28.20434, -0.48004, 3.06218, 9.88925, 0.01212, 0.07021, 0.03451
1008, 42495, 35.81747, 42.71527, 52.16781, 28.20434, -0.50877, 2.99395, 9.39964, 0.00959, 0.08300, 0.03118
1009, 42536, 35.81747, 42.71527, 52.16781, 28.20434, -0.63087, 3.02388, 9.36253, 0.00533, 0.07954, 0.03304
1010, 42577, 35.76637, 42.66417, 52.16781, 28.20434, -0.59616, 3.11964, 9.63786, 0.00759, 0.08100, 0.03264
1011, 42622, 35.71528, 42.66417, 52.16781, 28.20434, -0.52792, 3.11486, 9.69891, 0.00187, 0.08434, 0.03184
1012, 42663, 35.71528, 42.71527, 52.16781, 28.20434, -0.45610, 2.98557, 9.57800, 0.00480, 0.09073, 0.03517
1013, 42704, 35.76637, 42.71527, 52.16781, 28.20434, -0.63686, 2.91135, 9.52533, -0.02185, 0.09713, 0.02918
1014, 42745, 35.81747, 42.76637, 52.16781, 28.20434, -0.68833, 2.87544, 9.51815, -0.03504, 0.09486, 0.02944
1015, 42786, 35.86856, 42.76637, 52.16781, 28.20434, -0.55905, 2.86466, 9.29309, 0.01053, 0.07754, 0.03371
1016, 42831, 35.91966, 42.76637, 52.16781, 28.20434, -0.60693, 2.97360, 9.43196, 0.01292, 0.07741, 0.03597
1017, 42872, 35.91966, 42.76637, 52.16781, 28.20434, -0.70150, 3.04542, 9.53611, 0.01665, 0.07314, 0.03317
1018, 42913, 35.86856, 42.76637, 52.16781, 28.20434, -0.59017, 3.02627, 9.60075, 0.01692, 0.07341, 0.03477
1019, 42954, 35.86856, 42.76637, 52.16781, 28.20434, -0.56144, 3.00831, 9.52054, 0.01625, 0.07488, 0.03437
1020, 42995, 35.81747, 42.76637, 52.16781, 28.20434, -0.59017, 2.94846, 9.64145, 0.01426, 0.07674, 0.03544
1021, 43040, 35.81747, 42.71527, 52.16781, 28.20434, -0.65003, 2.96043, 9.64983, 0.00919, 0.08114, 0.03544
1022, 43081, 35.81747, 42.71527, 52.16781, 28.20434, -0.62848, 2.88980, 9.53012, 0.01319, 0.07741, 0.03424
1023, 43122, 35.81747, 42.71527, 52.16781, 28.20434, -0.63446, 2.91374, 9.58758, 0.01665, 0.07927, 0.03491
1024, 43163, 35.76637, 42.71527, 52.16781, 28.20434, -0.61770, 2.98677, 9.54089, 0.01719, 0.07967, 0.03344
1025, 43208, 35.76637, 42.71527, 52.16781, 28.20434, -0.66439, 2.99754, 9.55885, 0.01732, 0.07394, 0.03024
1026, 43249, 35.76637, 42.71527, 52.16781, 28.20434, -0.55067, 2.92571, 9.55765, 0.01319, 0.07807, 0.03304
1027, 43290, 35.76637, 42.71527, 52.16781, 28.20434, -0.60334, 3.00712, 9.56603, 0.01492, 0.07847, 0.03144
1028, 43331, 35.76637, 42.71527, 52.16781, 28.20434, -0.64643, 2.96043, 9.48702, 0.01199, 0.07914, 0.03397
1029, 43372, 35.76637, 42.71527, 52.16781, 28.20434, -0.57700, 2.98677, 9.65462, 0.00959, 0.07807, 0.03344
1030, 43416, 35.76637, 42.71527, 52.16781, 28.20434, -0.57700, 2.96881, 9.56962, 0.00906, 0.07834, 0.03557
1031, 43457, 35.76637, 42.71527, 52.16781, 28.20434, -0.71946, 3.00831, 9.53371, 0.00786, 0.07887, 0.03531
1032, 43498, 35.71528, 42.71527, 52.16781, 28.20434, -0.47285, 2.97240, 9.60673, 0.00893, 0.08034, 0.03264
1033, 43539, 35.71528, 42.71527, 52.16781, 28.20434, -0.67876, 3.00233, 9.44393, 0.00839, 0.08660, 0.03064
1034, 43580, 35.76637, 42.71527, 52.16781, 28.20434, -0.69671, 3.06697, 9.54089, 0.00719, 0.07568, 0.03664
1035, 43634, 35.76637, 42.71527, 52.16781, 28.20434, -0.48722, 3.02627, 9.59476, 0.00440, 0.08114, 0.03224
1036, 43673, 35.76637, 42.71527, 52.16781, 28.20434, -0.62130, 3.01310, 9.55765, -0.00040, 0.08953, 0.03038
1037, 43713, 35.76637, 42.71527, 52.16781, 28.20434, -0.69791, 2.98198, 9.65701, -0.00693, 0.08713, 0.03264
1038, 43753, 35.81747, 42.71527, 52.16781, 28.20434, -0.64763, 2.78446, 9.46787, -0.00480, 0.08154, 0.03251
1039, 43793, 35.81747, 42.71527, 52.16781, 28.20434, -0.55905, 2.82636, 9.51815, -0.00280, 0.08553, 0.03517
1040, 43836, 35.81747, 42.71527, 52.16781, 28.20434, -0.64165, 2.91853, 9.42956, 0.00093, 0.08513, 0.03291
1041, 43876, 35.81747, 42.71527, 52.16781, 28.20434, -0.64165, 2.88860, 9.24760, 0.00426, 0.07861, 0.03211
1042, 43916, 35.81747, 42.66417, 52.16781, 28.15324, -0.70150, 2.99515, 9.41999, 0.01399, 0.06995, 0.02851
1043, 43956, 35.66418, 42.61308, 52.16781, 28.10215, -0.52553, 3.21900, 9.63666, 0.00786, 0.07381, 0.02758
1044, 43999, 35.51090, 42.51089, 52.16781, 28.10215, -0.50877, 3.11605, 9.56843, 0.00426, 0.07368, 0.02838
1045, 44039, 35.30652, 42.40870, 52.16781, 28.05105, -0.60334, 3.09810, 9.59117, 0.00253, 0.07914, 0.02918
1046, 44079, 35.10214, 42.35760, 52.16781, 28.05105, -0.70988, 3.03106, 9.87728, 0.00093, 0.07821, 0.03211
1047, 44119, 34.94885, 42.35760, 52.16781, 27.99996, -0.66918, 2.71263, 9.85813, 0.01679, 0.06941, 0.03491
1048, 44159, 34.89776, 42.35760, 52.16781, 27.99996, -0.60573, 2.53546, 9.59596, 0.01372, 0.07381, 0.03704
1049, 44202, 34.89776, 42.40870, 52.16781, 27.99996, -0.42856, 2.74495, 9.45590, -0.00373, 0.09459, 0.03730
1050, 44242, 34.89776, 42.40870, 52.16781, 27.99996, -0.65960, 2.96881, 9.70729, -0.02212, 0.10019, 0.03357
1051, 44282, 34.94885, 42.35760, 52.16781, 27.94886, -0.76255, 3.02148, 9.44513, 0.00173, 0.08660, 0.03384
1052, 44322, 34.94885, 42.40870, 52.16781, 27.94886, -0.63446, 3.21422, 9.31943, 0.00040, 0.07608, 0.03437
1053, 44362, 34.94885, 42.40870, 52.16781, 27.94886, -0.50637, 3.41533, 9.48104, 0.00533, 0.07554, 0.03464
1054, 44405, 34.89776, 42.40870, 52.16781, 27.94886, -0.57341, 3.29682, 9.41520, 0.01172, 0.07714, 0.03464
1055, 44445, 34.89776, 42.40870, 52.16781, 27.94886, -0.60454, 3.25731, 9.51695, 0.00666, 0.07901, 0.03331
1056, 44485, 34.89776, 42.35760, 52.16781, 27.94886, -0.67157, 3.08373, 9.58160, 0.00320, 0.07514, 0.03517
1057, 44525, 34.89776, 42.40870, 52.16781, 27.94886, -0.50637, 2.93050, 9.34098, -0.00600, 0.07807, 0.03984
1058, 44565, 34.84666, 42.40870, 52.16781, 27.99996, -0.53391, 2.89100, 9.82341, -0.04796, 0.10725, 0.03304
1059, 44608, 34.84666, 42.40870, 52.16781, 27.94886, -0.73382, 2.52349, 9.67617, -0.29044, 0.22396, -0.00346
1060, 44648, 34.84666, 42.40870, 52.16781, 27.94886, -0.90740, 1.97881, 9.46428, -0.11578, 0.15268, 0.03757
1061, 44688, 34.89776, 42.40870, 52.16781, 27.94886, -0.62728, 2.46124, 9.33978, 0.02971, 0.06755, 0.04010
1062, 44728, 34.84666, 42.40870, 52.16781, 27.94886, -0.69791, 2.99155, 9.42478, 0.04104, 0.06542, 0.03491
1063, 44771, 34.79557, 42.35760, 52.16781, 27.94886, -0.81762, 3.00951, 9.89045, 0.04490, 0.04876, 0.03571
1064, 44811, 34.74448, 42.35760, 52.16781, 27.94886, -0.74579, 2.74376, 9.54449, 0.02025, 0.06941, 0.03557
1065, 44851, 34.69338, 42.35760, 52.16781, 27.94886, -0.58658, 2.76291, 9.81623, 0.01039, 0.07781, 0.03757
1066, 44891, 34.69338, 42.35760, 52.16781, 27.89777, -0.52313, 2.71502, 9.53491, -0.00067, 0.08887, 0.03198
1067, 44931, 34.69338, 42.35760, 52.16781, 27.89777, -0.76854, 2.93888, 9.69412, -0.00719, 0.09193, 0.03304
1068, 44974, 34.69338, 42.35760, 52.16781, 27.89777, -0.69073, 2.96761, 9.51336, 0.00626, 0.08380, 0.03544
1069, 45014, 34.69338, 42.35760, 52.16781, 27.89777, -0.61531, 2.79284, 9.59476, 0.00346, 0.08260, 0.03118
1070, 45054, 34.69338, 42.35760, 52.16781, 27.89777, -0.61770, 2.70425, 9.72764, 0.00586, 0.08434, 0.03331
1071, 45094, 34.69338, 42.35760, 52.16781, 27.84667, -0.77572, 2.74854, 9.66539, 0.01545, 0.07594, 0.03637
1072, 45134, 34.69338, 42.35760, 52.16781, 27.69339, -0.58778, 2.64080, 9.47505, 0.01892, 0.07461, 0.03131
1073, 45186, 34.69338, 42.35760, 52.16781, 27.54011, -0.74699, 2.91255, 9.84017, 0.00866, 0.08327, 0.03571
1074, 45227, 34.69338, 42.35760, 52.16781, 27.48901, -0.68354, 2.87544, 9.37809, 0.01199, 0.07954, 0.03571
1075, 45268, 34.69338, 42.35760, 52.16781, 27.48901, -0.61531, 2.97120, 9.44752, 0.02891, 0.06861, 0.02825
1076, 45309, 34.69338, 42.35760, 52.16781, 27.48901, -0.65721, 2.88501, 9.49660, 0.02665, 0.06635, 0.03064
1077, 45350, 34.69338, 42.35760, 52.16781, 27.48901, -0.64643, 2.83473, 9.67856, 0.03344, 0.06608, 0.02811
1078, 45394, 34.69338, 42.35760, 52.16781, 27.48901, -0.71347, 2.78087, 9.57920, 0.03557, 0.05929, 0.02864
1079, 45435, 34.69338, 42.35760, 52.16781, 27.48901, -0.60932, 2.71862, 9.53611, 0.02944, 0.06289, 0.03198
1080, 45476, 34.69338, 42.35760, 52.16781, 27.48901, -0.62010, 2.85269, 9.65582, 0.02012, 0.07381, 0.03064
1081, 45517, 34.69338, 42.35760, 52.16781, 27.48901, -0.68714, 2.91494, 9.54568, 0.01252, 0.08207, 0.03411
1082, 45561, 34.69338, 42.35760, 52.16781, 27.43792, -0.63686, 2.91733, 9.57920, 0.00533, 0.08114, 0.03597
1083, 45602, 34.69338, 42.35760, 52.16781, 27.43792, -0.57102, 2.92212, 9.50618, 0.00640, 0.08340, 0.03198
1084, 45643, 34.69338, 42.35760, 52.16781, 27.48901, -0.60214, 2.90297, 9.52653, -0.00200, 0.09073, 0.03304
1085, 45684, 34.69338, 42.35760, 52.16781, 27.43792, -0.67516, 2.86945, 9.48822, 0.00120, 0.08407, 0.03357
1086, 45725, 34.69338, 42.35760, 52.16781, 27.43792, -0.67876, 2.86347, 9.55047, 0.00600, 0.08021, 0.03437
1087, 45769, 34.69338, 42.35760, 52.16781, 27.43792, -0.63566, 2.83833, 9.54927, 0.00693, 0.07941, 0.03411
1088, 45810, 34.69338, 42.35760, 52.16781, 27.43792, -0.62848, 2.83833, 9.61871, 0.00893, 0.08260, 0.03304
1089, 45851, 34.69338, 42.35760, 52.16781, 27.43792, -0.75417, 2.87783, 9.61751, 0.00226, 0.08340, 0.03624
1090, 45892, 34.69338, 42.35760, 52.16781, 27.43792, -0.67636, 2.90058, 9.46189, 0.00413, 0.08207, 0.03477
1091, 45933, 34.69338, 42.35760, 52.16781, 27.43792, -0.65960, 2.80122, 9.63187, 0.00666, 0.08047, 0.03584
1092, 45977, 34.69338, 42.35760, 52.16781, 27.43792, -0.62968, 2.85509, 9.50498, 0.00773, 0.07901, 0.03624
1093, 46018, 34.69338, 42.35760, 52.16781, 27.43792, -0.66559, 2.96402, 9.58040, 0.00719, 0.07701, 0.03717
1094, 46059, 34.69338, 42.35760, 52.16781, 27.43792, -0.59137, 2.91015, 9.57800, 0.02118, 0.07208, 0.03611
1095, 46100, 34.69338, 42.35760, 52.16781, 27.43792, -0.62968, 2.80720, 9.54209, 0.03304, 0.06528, 0.03224
1096, 46144, 34.69338, 42.35760, 52.16781, 27.43792, -0.67277, 2.86347, 9.67736, 0.03277, 0.06582, 0.03264
1097, 46185, 34.69338, 42.30651, 52.16781, 27.43792, -0.63686, 2.87783, 9.53611, 0.04263, 0.05862, 0.03637
1098, 46226, 34.64228, 42.30651, 52.16781, 27.43792, -0.57102, 2.95085, 9.51216, 0.04943, 0.05462, 0.03770
1099, 46267, 34.64228, 42.30651, 52.16781, 27.43792, -0.69432, 2.88022, 9.87967, 0.03131, 0.08553, 0.03424
1100, 46308, 34.59119, 42.25542, 52.16781, 27.43792, -0.62608, 3.05979, 9.96946, 0.03357, 0.06222, 0.03704
1101, 46352, 34.59119, 42.25542, 52.16781, 27.43792, -0.47525, 3.04303, 9.61272, 0.01639, 0.05223, 0.01719
1102, 46393, 34.54010, 42.25542, 52.16781, 27.43792, -0.69671, 2.81199, 9.41759, 0.02678, 0.07155, 0.02851
1103, 46434, 34.59119, 42.25542, 52.16781, 27.43792, -0.56264, 2.85389, 9.52892, 0.01585, 0.07794, 0.03131
1104, 46483, 34.59119, 42.25542, 52.16781, 27.43792, -0.62249, 2.89579, 9.53371, 0.01772, 0.07501, 0.02998
1105, 46524, 34.59119, 42.25542, 52.16781, 27.43792, -0.65003, 2.79284, 9.22486, 0.02838, 0.07967, 0.03531
1106, 46568, 34.54010, 42.25542, 52.16781, 27.43792, -0.53032, 2.97958, 9.78391, 0.01212, 0.08154, 0.03491
1107, 46609, 34.59119, 42.25542, 52.16781, 27.43792, -0.67995, 2.82516, 9.49421, 0.01599, 0.08234, 0.03677
1108, 46650, 34.59119, 42.25542, 52.16781, 27.43792, -0.67397, 2.94247, 9.52174, 0.01319, 0.07861, 0.03890
1109, 46691, 34.59119, 42.25542, 52.16781, 27.43792, -0.54827, 3.11486, 9.58399, 0.01852, 0.07967, 0.03704
1110, 46732, 34.59119, 42.25542, 52.16781, 27.43792, -0.60454, 3.04183, 9.47026, 0.01719, 0.08394, 0.03477
1111, 46786, 34.59119, 42.25542, 52.16781, 27.43792, -0.52553, 3.09929, 9.57441, 0.00946, 0.08500, 0.03757
1112, 46827, 34.59119, 42.25542, 52.16781, 27.43792, -0.61411, 2.89220, 9.50259, 0.01399, 0.08074, 0.03291
1113, 46868, 34.59119, 42.25542, 52.16781, 27.43792, -0.61890, 2.80840, 9.58519, 0.00706, 0.08540, 0.03357
1114, 46909, 34.59119, 42.20432, 52.16781, 27.38682, -0.60813, 2.86825, 9.67736, 0.01292, 0.08687, 0.03517
1115, 46953, 34.59119, 42.20432, 52.16781, 27.33573, -0.70988, 2.87304, 9.65821, 0.00839, 0.07941, 0.03584
1116, 46994, 34.59119, 42.20432, 52.16781, 27.28463, -0.68474, 3.02747, 9.63307, 0.00626, 0.07368, 0.03637
1117, 47035, 34.59119, 42.20432, 52.16781, 27.28463, -0.55067, 3.05021, 9.40442, 0.00613, 0.07687, 0.03491
1118, 47076, 34.59119, 42.25542, 52.16781, 27.28463, -0.58059, 3.10169, 9.35893, 0.00799, 0.08154, 0.03651
1119, 47117, 34.59119, 42.25542, 52.16781, 27.28463, -0.56024, 3.05620, 9.57920, 0.00986, 0.08593, 0.03624
1120, 47162, 34.59119, 42.25542, 52.16781, 27.28463, -0.62249, 2.89579, 9.59357, 0.01092, 0.08074, 0.03464
1121, 47203, 34.59119, 42.25542, 52.16781, 27.28463, -0.57820, 2.88980, 9.48343, 0.01306, 0.08274, 0.03251
1122, 47244, 34.59119, 42.20432, 52.16781, 27.28463, -0.67277, 2.99634, 9.62828, 0.01639, 0.07847, 0.03331
1123, 47285, 34.59119, 42.25542, 52.16781, 27.28463, -0.65481, 3.00831, 9.61152, 0.00999, 0.07727, 0.03611
1124, 47326, 34.59119, 42.25542, 52.16781, 27.28463, -0.65601, 2.91733, 9.57202, 0.01532, 0.07994, 0.03624
1125, 47371, 34.64228, 42.20432, 52.16781, 27.28463, -0.63925, 2.91733, 9.44632, 0.01039, 0.07994, 0.03411
1126, 47412, 34.64228, 42.25542, 52.16781, 27.28463, -0.58658, 2.97001, 9.47505, 0.00560, 0.07861, 0.03557
1127, 47453, 34.64228, 42.25542, 52.16781, 27.28463, -0.67995, 3.09091, 9.42597, 0.00879, 0.08487, 0.03637
1128, 47494, 34.59119, 42.20432, 52.16781, 27.28463, -0.58897, 3.11964, 9.58279, 0.00493, 0.09153, 0.03770
1129, 47535, 34.59119, 42.20432, 52.16781, 27.28463, -0.54708, 2.88142, 9.64624, 0.00586, 0.08847, 0.03717
1130, 47580, 34.59119, 42.20432, 52.16781, 27.28463, -0.68474, 2.99634, 9.62230, 0.00893, 0.09792, 0.03531
