index, elapse_time, susp_fl, susp_fr, susp_rl, susp_rr, acc_x, acc_y, acc_z, rot_x, rot_y, rot_z
0, 583, 37.14594, 45.32111, 52.16781, 26.67150, -0.37948, 2.27329, 9.74560, 0.00879, 0.08074, 0.03317
1, 605, 37.19703, 45.32111, 52.16781, 26.67150, -0.39744, 2.31998, 9.69412, 0.00906, 0.07847, 0.03264
2, 626, 37.19703, 45.32111, 52.16781, 26.67150, -0.37589, 2.31400, 9.77433, 0.00893, 0.07941, 0.03304
3, 647, 37.19703, 45.32111, 52.16781, 26.67150, -0.34237, 2.30681, 9.70490, 0.00893, 0.07887, 0.03211
4, 668, 37.19703, 45.32111, 52.16781, 26.67150, -0.34955, 2.26970, 9.71328, 0.00879, 0.08074, 0.03357
5, 694, 37.19703, 45.32111, 52.16781, 26.67150, -0.38068, 2.30322, 9.77313, 0.00919, 0.07887, 0.03184
6, 716, 37.19703, 45.32111, 52.16781, 26.67150, -0.37350, 2.32477, 9.79947, 0.00946, 0.08140, 0.03397
7, 737, 37.19703, 45.32111, 52.16781, 26.67150, -0.37589, 2.29724, 9.73482, 0.00959, 0.07914, 0.03251
8, 758, 37.19703, 45.32111, 52.16781, 26.67150, -0.40701, 2.28407, 9.74560, 0.00999, 0.08060, 0.03264
9, 784, 37.19703, 45.32111, 52.16781, 26.62040, -0.38547, 2.27449, 9.77313, 0.00959, 0.08074, 0.03251
10, 805, 37.19703, 45.32111, 52.16781, 26.67150, -0.39624, 2.30442, 9.71926, 0.00973, 0.07941, 0.03331
11, 827, 37.19703, 45.32111, 52.16781, 26.67150, -0.38666, 2.28287, 9.74201, 0.00946, 0.07954, 0.03251
12, 848, 37.19703, 45.32111, 52.16781, 26.62040, -0.38786, 2.34033, 9.73363, 0.00933, 0.07954, 0.03397
13, 869, 37.19703, 45.32111, 52.16781, 26.67150, -0.39385, 2.29843, 9.79827, 0.00906, 0.08060, 0.03224
14, 895, 37.19703, 45.32111, 52.16781, 26.67150, -0.37709, 2.31280, 9.78510, 0.00813, 0.07927, 0.03238
15, 915, 37.19703, 45.32111, 52.16781, 26.67150, -0.41659, 2.28167, 9.77074, 0.00906, 0.07874, 0.03251
16, 934, 37.19703, 45.32111, 52.16781, 26.67150, -0.37589, 2.27689, 9.72285, 0.00986, 0.07874, 0.03451
17, 954, 37.19703, 45.32111, 52.16781, 26.67150, -0.38068, 2.29843, 9.75278, 0.00853, 0.07914, 0.03171
18, 973, 37.19703, 45.32111, 52.16781, 26.67150, -0.37350, 2.28646, 9.70849, 0.00719, 0.07914, 0.03211
19, 996, 37.19703, 45.32111, 52.16781, 26.67150, -0.38188, 2.27569, 9.75398, 0.00879, 0.07821, 0.03184
20, 1016, 37.19703, 45.32111, 52.16781, 26.67150, -0.41300, 2.31639, 9.78630, 0.00746, 0.07847, 0.03251
21, 1035, 37.19703, 45.32111, 52.16781, 26.67150, -0.40701, 2.30442, 9.77792, 0.00853, 0.07967, 0.03384
22, 1055, 37.19703, 45.32111, 52.16781, 26.67150, -0.39504, 2.32357, 9.69293, 0.00986, 0.07794, 0.03331
23, 1074, 37.19703, 45.32111, 52.16781, 26.62040, -0.41539, 2.28527, 9.78391, 0.00919, 0.07714, 0.03238
24, 1097, 37.19703, 45.32111, 52.16781, 26.67150, -0.35674, 2.32716, 9.73722, 0.00946, 0.07834, 0.03211
25, 1117, 37.19703, 45.32111, 52.16781, 26.67150, -0.33519, 2.27329, 9.70490, 0.00839, 0.08021, 0.03264
26, 1136, 37.19703, 45.32111, 52.16781, 26.67150, -0.36871, 2.31639, 9.74679, 0.00893, 0.07794, 0.03131
27, 1156, 37.19703, 45.32111, 52.16781, 26.67150, -0.36871, 2.30442, 9.72046, 0.00759, 0.07954, 0.03198
28, 1176, 37.19703, 45.32111, 52.16781, 26.67150, -0.41180, 2.29245, 9.76355, 0.00946, 0.08060, 0.03224
29, 1199, 37.19703, 45.32111, 52.16781, 26.67150, -0.39624, 2.33554, 9.71926, 0.00893, 0.08060, 0.03277
30, 1218, 37.19703, 45.32111, 52.16781, 26.67150, -0.38547, 2.31878, 9.77912, 0.00839, 0.07954, 0.03357
31, 1238, 37.19703, 45.32111, 52.16781, 26.62040, -0.39744, 2.28527, 9.75158, 0.00879, 0.07887, 0.03118
32, 1257, 37.19703, 45.32111, 52.16781, 26.67150, -0.37469, 2.26611, 9.75158, 0.01066, 0.07821, 0.03464
33, 1277, 37.19703, 45.32111, 52.16781, 26.67150, -0.41061, 2.30322, 9.75398, 0.00813, 0.08114, 0.03211
34, 1300, 37.19703, 45.32111, 52.16781, 26.67150, -0.40223, 2.32597, 9.71806, 0.00959, 0.07874, 0.03371
35, 1319, 37.19703, 45.32111, 52.16781, 26.67150, -0.39624, 2.32357, 9.77193, 0.00906, 0.07821, 0.03344
36, 1339, 37.19703, 45.32111, 52.16781, 26.67150, -0.40103, 2.28287, 9.73961, 0.00826, 0.08074, 0.03304
37, 1358, 37.19703, 45.32111, 52.16781, 26.67150, -0.32920, 2.30083, 9.79707, 0.00799, 0.08007, 0.03264
38, 1377, 37.19703, 45.32111, 52.16781, 26.67150, -0.40223, 2.29484, 9.76116, 0.00946, 0.07967, 0.03198
39, 1412, 37.19703, 45.32111, 52.16781, 26.67150, -0.43574, 2.32836, 9.78869, 0.00826, 0.07834, 0.03331
40, 1432, 37.19703, 45.32111, 52.16781, 26.67150, -0.39025, 2.28766, 9.70250, 0.01026, 0.07834, 0.03371
41, 1452, 37.19703, 45.32111, 52.16781, 26.67150, -0.39265, 2.33076, 9.71806, 0.00786, 0.07887, 0.03344
42, 1472, 37.19703, 45.32111, 52.16781, 26.92697, -0.36033, 2.29724, 9.79588, 0.00813, 0.08087, 0.03317
43, 1493, 37.19703, 45.32111, 52.16781, 26.67150, -0.36392, 2.28766, 9.77912, 0.00906, 0.07967, 0.03238
44, 1516, 37.19703, 45.32111, 52.16781, 26.67150, -0.38786, 2.27808, 9.73363, 0.01013, 0.07901, 0.03331
45, 1536, 37.19703, 45.32111, 52.16781, 26.67150, -0.38068, 2.27928, 9.76595, 0.00893, 0.07954, 0.03238
46, 1556, 37.19703, 45.32111, 52.16781, 26.67150, -0.38666, 2.32118, 9.75517, 0.00933, 0.07807, 0.03317
47, 1577, 37.19703, 45.32111, 52.16781, 26.67150, -0.42018, 2.28886, 9.74799, 0.00866, 0.07847, 0.03357
48, 1597, 37.19703, 45.32111, 52.16781, 26.67150, -0.39385, 2.29963, 9.74799, 0.00999, 0.07767, 0.03344
49, 1620, 37.14594, 45.32111, 52.16781, 26.67150, -0.37110, 2.30562, 9.75996, 0.00706, 0.07967, 0.03264
50, 1640, 37.19703, 45.32111, 52.16781, 26.67150, -0.36033, 2.26252, 9.76236, 0.01013, 0.07807, 0.03211
51, 1661, 37.19703, 45.32111, 52.16781, 26.67150, -0.37948, 2.29724, 9.70609, 0.00999, 0.08007, 0.03238
52, 1681, 37.19703, 45.32111, 52.16781, 26.67150, -0.41180, 2.31160, 9.72046, 0.00906, 0.08154, 0.03277
53, 1704, 37.19703, 45.32111, 52.16781, 26.67150, -0.41180, 2.30202, 9.69532, 0.00746, 0.07847, 0.03291
54, 1725, 37.19703, 45.32111, 52.16781, 26.67150, -0.36631, 2.28167, 9.78271, 0.00933, 0.08021, 0.03357
55, 1745, 37.19703, 45.32111, 52.16781, 26.67150, -0.38307, 2.31759, 9.78869, 0.00733, 0.08114, 0.03317
56, 1765, 37.19703, 45.32111, 52.16781, 26.67150, -0.38188, 2.30562, 9.78630, 0.00986, 0.07954, 0.03198
57, 1786, 37.19703, 45.32111, 52.16781, 26.67150, -0.36631, 2.28646, 9.74560, 0.01132, 0.07781, 0.03277
58, 1809, 37.19703, 45.32111, 52.16781, 26.67150, -0.38666, 2.29724, 9.73602, 0.00959, 0.08021, 0.03344
59, 1829, 37.19703, 45.32111, 52.16781, 26.67150, -0.36990, 2.30442, 9.75158, 0.00879, 0.08034, 0.03291
60, 1849, 37.19703, 45.32111, 52.16781, 26.67150, -0.39025, 2.29604, 9.78031, 0.00773, 0.08060, 0.03211
61, 1870, 37.19703, 45.32111, 52.16781, 26.67150, -0.35434, 2.27808, 9.74560, 0.00853, 0.07941, 0.03357
62, 1890, 37.19703, 45.32111, 52.16781, 26.67150, -0.37709, 2.31280, 9.70729, 0.01013, 0.08047, 0.03304
63, 1913, 37.19703, 45.32111, 52.16781, 26.67150, -0.39265, 2.29843, 9.75517, 0.00853, 0.07954, 0.03317
64, 1934, 37.19703, 45.32111, 52.16781, 26.67150, -0.40223, 2.31400, 9.76355, 0.00853, 0.07981, 0.03291
65, 1954, 37.19703, 45.32111, 52.16781, 26.67150, -0.39863, 2.29604, 9.76595, 0.00759, 0.08060, 0.03437
66, 1974, 37.19703, 45.32111, 52.16781, 26.62040, -0.37469, 2.31519, 9.71806, 0.00946, 0.08047, 0.03198
67, 1994, 37.19703, 45.32111, 52.16781, 26.67150, -0.42138, 2.31160, 9.81144, 0.00879, 0.08127, 0.03198
68, 2018, 37.19703, 45.32111, 52.16781, 26.67150, -0.39145, 2.31998, 9.73961, 0.00786, 0.07994, 0.03331
69, 2038, 37.19703, 45.32111, 52.16781, 26.67150, -0.36631, 2.31160, 9.68455, 0.00893, 0.08060, 0.03344
70, 2058, 37.19703, 45.32111, 52.16781, 26.67150, -0.35314, 2.26372, 9.73243, 0.00866, 0.07967, 0.03491
71, 2079, 37.19703, 45.32111, 52.16781, 26.67150, -0.38906, 2.32238, 9.75278, 0.01026, 0.07887, 0.03251
72, 2099, 37.19703, 45.32111, 52.16781, 26.67150, -0.41659, 2.29125, 9.75757, 0.00866, 0.08007, 0.03277
73, 2122, 37.19703, 45.32111, 52.16781, 26.62040, -0.38307, 2.27569, 9.72884, 0.00919, 0.07887, 0.03504
74, 2142, 37.19703, 45.32111, 52.16781, 26.62040, -0.39145, 2.26970, 9.79588, 0.00999, 0.07967, 0.03317
75, 2162, 37.19703, 45.32111, 52.16781, 26.62040, -0.33519, 2.29724, 9.76715, 0.00906, 0.08034, 0.03251
76, 2183, 37.19703, 45.32111, 52.16781, 26.62040, -0.41180, 2.31998, 9.73961, 0.00973, 0.08247, 0.03397
77, 2203, 37.19703, 45.32111, 52.16781, 26.62040, -0.38547, 2.32477, 9.73482, 0.00866, 0.08074, 0.03317
78, 2244, 37.19703, 45.32111, 52.16781, 26.67150, -0.38427, 2.31998, 9.78510, 0.00653, 0.08060, 0.03184
79, 2265, 37.19703, 45.32111, 52.16781, 26.67150, -0.38906, 2.28766, 9.74919, 0.00933, 0.07927, 0.03304
80, 2286, 37.19703, 45.32111, 52.16781, 26.67150, -0.36751, 2.31280, 9.76834, 0.00826, 0.07794, 0.03344
81, 2307, 37.19703, 45.32111, 52.16781, 26.67150, -0.37948, 2.30322, 9.71926, 0.00919, 0.08100, 0.03344
index, elapse_time, susp_fl, susp_fr, susp_rl, susp_rr, acc_x, acc_y, acc_z, rot_x, rot_y, rot_z
0, 577, 37.14594, 45.32111, 52.16781, 26.67150, -0.41659, 2.28646, 9.72166, 0.00893, 0.07981, 0.03264
1, 600, 37.19703, 45.32111, 52.16781, 26.67150, -0.40462, 2.30681, 9.69891, 0.00933, 0.08180, 0.03384
2, 623, 37.19703, 45.32111, 52.16781, 26.67150, -0.36871, 2.29365, 9.73842, 0.00879, 0.08060, 0.03118
3, 646, 37.19703, 45.32111, 52.16781, 26.67150, -0.39624, 2.31280, 9.75398, 0.00879, 0.08021, 0.03238
4, 669, 37.19703, 45.32111, 52.16781, 26.67150, -0.40342, 2.32956, 9.73004, 0.00906, 0.08127, 0.03064
5, 696, 37.19703, 45.32111, 52.16781, 26.67150, -0.40821, 2.31878, 9.73961, 0.00839, 0.07927, 0.03211
6, 719, 37.19703, 45.32111, 52.16781, 26.67150, -0.38906, 2.34153, 9.78989, 0.01013, 0.08007, 0.03464
7, 742, 37.19703, 45.32111, 52.16781, 26.62040, -0.35554, 2.29484, 9.75757, 0.00719, 0.08047, 0.03291
8, 765, 37.19703, 45.32111, 52.16781, 26.67150, -0.38307, 2.32597, 9.74201, 0.00906, 0.08007, 0.03264
9, 788, 37.19703, 45.32111, 52.16781, 26.62040, -0.38666, 2.29125, 9.80306, 0.00893, 0.07794, 0.03411
10, 816, 37.19703, 45.32111, 52.16781, 26.62040, -0.36392, 2.28766, 9.73363, 0.01119, 0.07994, 0.03224
11, 839, 37.19703, 45.32111, 52.16781, 26.67150, -0.38786, 2.28407, 9.71806, 0.00813, 0.07954, 0.03144
12, 861, 37.19703, 45.32111, 52.16781, 26.67150, -0.38068, 2.32836, 9.73363, 0.00959, 0.07887, 0.03357
13, 884, 37.19703, 45.32111, 52.16781, 26.67150, -0.38786, 2.27329, 9.76236, 0.00826, 0.08220, 0.03411
14, 907, 37.19703, 45.32111, 52.16781, 26.67150, -0.39265, 2.30202, 9.79228, 0.00879, 0.07994, 0.03371
15, 935, 37.19703, 45.32111, 52.16781, 26.67150, -0.38427, 2.28886, 9.69293, 0.00839, 0.07981, 0.03371
16, 956, 37.19703, 45.32111, 52.16781, 26.67150, -0.42497, 2.32118, 9.75158, 0.00959, 0.07941, 0.03424
17, 977, 37.19703, 45.32111, 52.16781, 26.62040, -0.37110, 2.30921, 9.72884, 0.00986, 0.07927, 0.03291
18, 998, 37.19703, 45.32111, 52.16781, 26.67150, -0.35674, 2.31400, 9.73961, 0.00826, 0.08007, 0.03397
19, 1019, 37.19703, 45.32111, 52.16781, 26.67150, -0.36631, 2.29125, 9.81264, 0.00813, 0.08100, 0.03277
20, 1044, 37.19703, 45.32111, 52.16781, 26.67150, -0.37948, 2.30322, 9.74799, 0.00733, 0.08087, 0.03331
21, 1065, 37.19703, 45.32111, 52.16781, 26.62040, -0.39863, 2.31280, 9.77433, 0.00839, 0.07861, 0.03251
22, 1086, 37.19703, 45.32111, 52.16781, 26.67150, -0.36751, 2.27569, 9.73961, 0.00759, 0.07914, 0.03384
23, 1107, 37.19703, 45.32111, 52.16781, 26.67150, -0.37350, 2.29604, 9.77074, 0.00973, 0.07847, 0.03224
24, 1132, 37.19703, 45.32111, 52.16781, 26.67150, -0.35674, 2.31040, 9.79109, 0.00999, 0.07807, 0.03411
25, 1153, 37.19703, 45.32111, 52.16781, 26.67150, -0.39025, 2.26491, 9.79588, 0.00866, 0.07781, 0.03331
26, 1174, 37.19703, 45.32111, 52.16781, 26.62040, -0.36990, 2.27689, 9.76595, 0.00999, 0.07914, 0.03317
27, 1195, 37.19703, 45.32111, 52.16781, 26.67150, -0.39145, 2.29963, 9.73004, 0.00933, 0.07954, 0.03331
28, 1216, 37.19703, 45.32111, 52.16781, 26.67150, -0.36990, 2.29724, 9.74440, 0.00826, 0.08114, 0.03344
29, 1241, 37.19703, 45.32111, 52.16781, 26.67150, -0.37469, 2.31040, 9.74201, 0.00999, 0.08034, 0.03357
30, 1262, 37.19703, 45.32111, 52.16781, 26.67150, -0.39025, 2.27928, 9.73243, 0.00879, 0.07861, 0.03277
31, 1283, 37.19703, 45.32111, 52.16781, 26.67150, -0.36392, 2.32836, 9.74919, 0.00933, 0.07967, 0.03344
32, 1304, 37.19703, 45.32111, 52.16781, 26.67150, -0.38547, 2.32956, 9.78031, 0.00759, 0.08100, 0.03344
33, 1325, 37.19703, 45.32111, 52.16781, 26.67150, -0.39025, 2.26731, 9.78630, 0.00759, 0.08021, 0.03198
34, 1360, 37.19703, 45.32111, 52.16781, 26.67150, -0.37469, 2.33554, 9.79348, 0.00893, 0.08060, 0.03397
35, 1381, 37.19703, 45.32111, 52.16781, 26.67150, -0.39385, 2.29963, 9.73961, 0.00946, 0.07994, 0.03371
36, 1402, 37.19703, 45.32111, 52.16781, 26.67150, -0.37589, 2.28766, 9.78630, 0.00773, 0.08100, 0.03211
37, 1424, 37.19703, 45.32111, 52.16781, 26.67150, -0.33878, 2.28287, 9.72525, 0.00906, 0.07954, 0.03264
38, 1445, 37.19703, 45.32111, 52.16781, 26.67150, -0.40701, 2.31759, 9.73722, 0.00973, 0.07954, 0.03304
39, 1470, 37.19703, 45.32111, 52.16781, 26.67150, -0.37110, 2.29125, 9.71926, 0.00813, 0.07781, 0.03384
40, 1491, 37.19703, 45.32111, 52.16781, 26.67150, -0.36033, 2.28527, 9.73961, 0.00813, 0.07954, 0.03291
41, 1513, 37.19703, 45.32111, 52.16781, 26.67150, -0.37350, 2.29724, 9.73004, 0.00853, 0.08074, 0.03304
42, 1534, 37.19703, 45.32111, 52.16781, 26.62040, -0.39504, 2.29365, 9.74560, 0.00879, 0.07967, 0.03251
43, 1556, 37.19703, 45.32111, 52.16781, 26.67150, -0.44772, 2.30801, 9.72884, 0.00839, 0.07981, 0.03171
44, 1581, 37.19703, 45.32111, 52.16781, 26.62040, -0.38906, 2.26013, 9.75637, 0.00719, 0.08034, 0.03224
45, 1602, 37.19703, 45.32111, 52.16781, 26.67150, -0.38666, 2.31878, 9.78869, 0.00799, 0.08007, 0.03211
46, 1623, 37.19703, 45.32111, 52.16781, 26.67150, -0.38906, 2.29125, 9.70969, 0.00906, 0.07967, 0.03384
47, 1645, 37.19703, 45.32111, 52.16781, 26.67150, -0.39744, 2.32716, 9.72405, 0.00786, 0.07874, 0.03238
48, 1666, 37.19703, 45.32111, 52.16781, 26.67150, -0.38188, 2.29365, 9.74799, 0.00893, 0.08154, 0.03251
49, 1691, 37.19703, 45.32111, 52.16781, 26.67150, -0.39145, 2.28646, 9.76116, 0.00866, 0.07981, 0.03291
50, 1713, 37.19703, 45.32111, 52.16781, 26.67150, -0.38906, 2.29125, 9.75278, 0.00999, 0.08047, 0.03317
51, 1734, 37.19703, 45.32111, 52.16781, 26.67150, -0.37110, 2.30322, 9.76355, 0.01066, 0.07821, 0.03211
52, 1756, 37.19703, 45.32111, 52.16781, 26.67150, -0.36512, 2.29125, 9.77433, 0.00879, 0.08007, 0.03144
53, 1777, 37.19703, 45.32111, 52.16781, 26.67150, -0.37110, 2.25773, 9.76236, 0.00919, 0.08060, 0.03384
54, 1802, 37.19703, 45.32111, 52.16781, 26.62040, -0.40462, 2.26970, 9.72525, 0.00813, 0.08140, 0.03264
55, 1823, 37.19703, 45.32111, 52.16781, 26.67150, -0.41061, 2.31400, 9.75637, 0.00679, 0.07914, 0.03211
56, 1845, 37.19703, 45.32111, 52.16781, 26.67150, -0.36751, 2.31519, 9.74919, 0.00906, 0.07981, 0.03238
57, 1866, 37.19703, 45.32111, 52.16781, 26.67150, -0.39265, 2.28167, 9.75517, 0.00693, 0.08114, 0.03224
58, 1888, 37.19703, 45.32111, 52.16781, 26.67150, -0.36990, 2.31519, 9.76834, 0.00839, 0.07821, 0.03198
59, 1913, 37.19703, 45.32111, 52.16781, 26.67150, -0.38307, 2.28646, 9.72285, 0.00893, 0.07994, 0.03277
60, 1934, 37.19703, 45.32111, 52.16781, 26.67150, -0.37828, 2.28287, 9.74320, 0.00759, 0.07914, 0.03357
61, 1956, 37.19703, 45.32111, 52.16781, 26.67150, -0.39624, 2.30322, 9.74679, 0.00746, 0.07967, 0.03357
62, 1977, 37.19703, 45.32111, 52.16781, 26.67150, -0.41180, 2.31639, 9.76715, 0.00866, 0.08087, 0.03371
63, 2002, 37.19703, 45.32111, 52.16781, 26.67150, -0.41779, 2.29245, 9.76954, 0.00906, 0.08021, 0.03131
64, 2023, 37.19703, 45.32111, 52.16781, 26.67150, -0.32801, 2.22182, 9.81982, 0.00466, 0.07821, 0.03451
65, 2045, 37.19703, 45.32111, 52.16781, 26.67150, -0.41061, 2.31639, 9.78630, 0.01092, 0.07954, 0.03198
66, 2066, 37.19703, 45.32111, 52.16781, 26.67150, -0.37589, 2.30083, 9.77672, 0.00933, 0.07821, 0.03504
67, 2088, 37.19703, 45.32111, 52.06562, 26.67150, -0.44891, 2.38702, 9.66300, 0.00973, 0.07754, 0.03251
68, 2112, 37.19703, 45.32111, 52.16781, 26.67150, -0.38666, 2.30442, 9.88207, 0.00946, 0.08034, 0.03371
69, 2134, 37.19703, 45.32111, 52.16781, 26.67150, -0.35793, 2.33315, 9.65582, 0.00933, 0.07807, 0.03264
70, 2155, 37.19703, 45.32111, 52.16781, 26.67150, -0.38786, 2.28407, 9.71806, 0.00959, 0.08021, 0.03251
71, 2176, 37.19703, 45.32111, 52.16781, 26.67150, -0.44053, 2.34273, 9.95150, 0.01319, 0.07927, 0.03317
72, 2198, 37.19703, 45.32111, 52.16781, 26.67150, -0.33040, 2.30442, 9.60673, 0.00853, 0.08007, 0.03344
73, 2233, 37.19703, 45.32111, 52.16781, 26.62040, -0.39025, 2.29365, 9.76595, 0.00826, 0.07941, 0.03451
74, 2252, 37.19703, 45.32111, 52.16781, 26.67150, -0.42018, 2.33315, 9.74320, 0.00719, 0.08021, 0.03264
75, 2272, 37.19703, 45.32111, 52.16781, 26.67150, -0.34836, 2.31998, 9.70011, 0.00759, 0.08047, 0.03437
76, 2293, 37.19703, 45.32111, 52.16781, 26.67150, -0.35434, 2.30322, 9.77672, 0.00986, 0.07994, 0.03371
77, 2313, 37.19703, 45.32111, 52.16781, 26.67150, -0.38427, 2.28407, 9.78391, 0.00826, 0.08114, 0.03198
78, 2336, 37.19703, 45.32111, 52.16781, 26.67150, -0.41061, 2.30442, 9.79109, 0.00799, 0.08060, 0.03397
79, 2356, 37.19703, 45.32111, 52.16781, 26.67150, -0.36392, 2.31519, 9.75877, 0.00933, 0.07741, 0.03531
80, 2377, 37.19703, 45.32111, 52.16781, 26.67150, -0.40821, 2.32238, 9.75877, 0.00853, 0.07994, 0.03371
81, 2397, 37.19703, 45.32111, 52.16781, 26.67150, -0.37948, 2.27210, 9.74320, 0.00866, 0.07847, 0.03198
82, 2417, 37.19703, 45.32111, 52.16781, 26.67150, -0.39863, 2.27090, 9.75278, 0.01159, 0.07981, 0.03291
83, 2441, 37.19703, 45.32111, 52.16781, 26.67150, -0.39025, 2.31280, 9.75039, 0.00866, 0.08021, 0.03357
84, 2461, 37.19703, 45.32111, 52.16781, 26.67150, -0.35793, 2.33315, 9.68933, 0.00933, 0.08234, 0.03251
85, 2481, 37.19703, 45.32111, 52.16781, 26.67150, -0.37469, 2.28527, 9.77792, 0.00759, 0.07981, 0.03384
86, 2501, 37.19703, 45.32111, 52.16781, 26.67150, -0.33279, 2.28766, 9.75517, 0.00759, 0.08021, 0.03211
87, 2522, 37.19703, 45.32111, 52.16781, 26.67150, -0.37350, 2.28287, 9.81264, 0.00906, 0.07754, 0.03264
88, 2545, 37.19703, 45.32111, 52.16781, 26.67150, -0.35075, 2.31519, 9.75757, 0.00933, 0.08034, 0.03304
89, 2565, 37.19703, 45.32111, 52.16781, 26.67150, -0.38068, 2.31040, 9.74679, 0.00826, 0.08114, 0.03224
90, 2586, 37.19703, 45.32111, 52.16781, 26.67150, -0.39265, 2.31280, 9.68933, 0.00879, 0.08087, 0.03131
91, 2606, 37.19703, 45.32111, 52.16781, 26.67150, -0.38666, 2.33914, 9.77193, 0.00786, 0.08100, 0.03331
92, 2626, 37.19703, 45.32111, 52.16781, 26.67150, -0.41659, 2.30442, 9.76236, 0.00706, 0.08060, 0.03238
93, 2649, 37.19703, 45.32111, 52.16781, 26.67150, -0.37948, 2.27449, 9.78031, 0.00773, 0.07901, 0.03397
94, 2670, 37.19703, 45.32111, 52.16781, 26.67150, -0.41420, 2.27689, 9.72166, 0.00759, 0.07781, 0.03384
95, 2690, 37.19703, 45.32111, 52.16781, 26.67150, -0.38906, 2.28646, 9.73602, 0.00866, 0.07821, 0.03317
96, 2710, 37.19703, 45.32111, 52.16781, 26.67150, -0.39385, 2.29245, 9.69532, 0.01013, 0.07927, 0.03331
97, 2731, 37.19703, 45.32111, 52.16781, 26.67150, -0.37948, 2.29125, 9.74320, 0.00759, 0.07994, 0.03264
98, 2754, 37.19703, 45.32111, 52.16781, 26.67150, -0.37948, 2.31160, 9.72285, 0.00933, 0.08154, 0.03317
99, 2774, 37.19703, 45.32111, 52.16781, 26.67150, -0.36152, 2.30681, 9.79707, 0.00959, 0.07727, 0.03317
100, 2795, 37.19703, 45.32111, 52.16781, 26.67150, -0.37709, 2.30202, 9.71328, 0.00933, 0.07874, 0.03437
101, 2815, 37.19703, 45.32111, 52.16781, 26.67150, -0.36512, 2.30202, 9.72285, 0.00973, 0.07941, 0.03331
102, 2838, 37.19703, 45.32111, 52.16781, 26.67150, -0.36871, 2.29005, 9.69173, 0.00879, 0.08007, 0.03224
103, 2858, 37.19703, 45.32111, 52.16781, 26.67150, -0.35674, 2.27210, 9.75757, 0.00839, 0.07967, 0.03277
104, 2879, 37.19703, 45.32111, 52.16781, 26.67150, -0.40821, 2.29005, 9.71088, 0.00919, 0.08060, 0.03264
105, 2899, 37.19703, 45.32111, 52.16781, 26.67150, -0.34955, 2.28407, 9.73363, 0.00866, 0.07967, 0.03291
106, 2919, 37.19703, 45.32111, 52.16781, 26.67150, -0.40582, 2.31759, 9.75517, 0.00813, 0.07954, 0.03317
107, 2951, 37.19703, 45.32111, 52.16781, 26.67150, -0.42258, 2.31998, 9.74440, 0.01079, 0.08047, 0.03291
108, 2971, 37.19703, 45.32111, 52.16781, 26.67150, -0.42018, 2.29245, 9.69771, 0.00986, 0.07887, 0.03424
109, 2991, 37.19703, 45.32111, 52.16781, 26.67150, -0.37469, 2.30681, 9.67138, 0.00719, 0.07927, 0.03451
110, 3012, 37.19703, 45.32111, 52.16781, 26.67150, -0.32082, 2.30681, 9.79947, 0.00679, 0.08167, 0.03411
111, 3032, 37.19703, 45.32111, 52.16781, 26.67150, -0.39863, 2.29843, 9.75877, 0.00653, 0.07847, 0.03251
112, 3064, 37.19703, 45.32111, 52.16781, 26.67150, -0.36152, 2.27928, 9.76116, 0.01132, 0.08047, 0.03371
113, 3085, 37.19703, 45.32111, 52.16781, 26.67150, -0.37709, 2.28527, 9.72166, 0.00973, 0.07981, 0.03144
114, 3106, 37.19703, 45.32111, 52.16781, 26.62040, -0.41659, 2.28646, 9.69771, 0.00959, 0.08060, 0.03411
115, 3127, 37.19703, 45.32111, 52.16781, 26.62040, -0.41420, 2.28287, 9.70131, 0.00799, 0.07807, 0.03264
116, 3148, 37.19703, 45.32111, 52.16781, 26.62040, -0.37350, 2.31639, 9.73123, 0.00773, 0.07794, 0.03224
117, 3173, 37.19703, 45.32111, 52.16781, 26.67150, -0.37230, 2.28766, 9.73961, 0.01053, 0.07981, 0.03317
118, 3194, 37.19703, 45.32111, 52.16781, 26.67150, -0.35793, 2.27808, 9.79707, 0.00999, 0.08100, 0.03238
119, 3215, 37.19703, 45.32111, 52.16781, 26.67150, -0.39025, 2.32118, 9.72764, 0.00813, 0.07994, 0.03224
120, 3236, 37.19703, 45.32111, 52.16781, 26.67150, -0.39504, 2.28886, 9.71447, 0.00879, 0.07954, 0.03211
121, 3258, 37.19703, 45.32111, 52.16781, 26.67150, -0.38666, 2.25414, 9.76595, 0.00826, 0.07821, 0.03304
122, 3282, 37.19703, 45.32111, 52.16781, 26.67150, -0.37709, 2.28766, 9.71806, 0.00999, 0.07794, 0.03317
123, 3303, 37.19703, 45.32111, 52.16781, 26.67150, -0.38427, 2.28287, 9.76475, 0.00959, 0.07807, 0.03371
124, 3324, 37.19703, 45.32111, 52.16781, 26.67150, -0.38547, 2.28287, 9.81742, 0.00946, 0.07874, 0.03331
125, 3346, 37.19703, 45.32111, 52.16781, 26.67150, -0.36392, 2.27928, 9.70250, 0.00813, 0.08127, 0.03331
126, 3367, 37.19703, 45.32111, 52.16781, 26.67150, -0.38547, 2.28886, 9.73004, 0.00879, 0.08021, 0.03184
127, 3391, 37.19703, 45.32111, 52.16781, 26.67150, -0.39265, 2.27928, 9.76475, 0.00959, 0.07914, 0.03171
128, 3412, 37.19703, 45.32111, 52.16781, 26.67150, -0.44053, 2.28407, 9.73482, 0.00973, 0.08074, 0.03437
129, 3434, 37.19703, 45.32111, 52.16781, 26.67150, -0.37110, 2.30202, 9.62230, 0.00666, 0.08394, 0.03291
130, 3455, 37.19703, 45.32111, 52.16781, 26.67150, -0.37948, 2.33794, 9.82580, 0.00933, 0.08100, 0.03397
131, 3479, 37.19703, 45.32111, 52.16781, 26.67150, -0.46807, 2.30921, 9.92037, 0.01146, 0.07741, 0.03251
132, 3500, 37.19703, 45.32111, 52.16781, 26.67150, -0.39863, 2.25654, 9.80665, 0.01506, 0.07767, 0.03384
133, 3522, 37.19703, 45.32111, 52.16781, 26.67150, -0.34596, 2.24816, 9.57681, 0.01559, 0.07794, 0.03451
134, 3543, 37.19703, 45.32111, 52.16781, 26.67150, -0.38307, 2.23738, 9.66180, 0.01599, 0.08060, 0.03357
135, 3564, 37.19703, 45.32111, 52.16781, 26.67150, -0.36152, 2.26491, 9.90601, 0.01212, 0.08394, 0.03304
136, 3588, 37.19703, 45.32111, 52.16781, 26.62040, -0.39504, 2.30562, 9.80545, 0.00040, 0.07781, 0.03291
137, 3610, 37.19703, 45.32111, 52.16781, 26.62040, -0.39624, 2.34033, 9.74081, 0.00506, 0.07981, 0.03291
138, 3631, 37.19703, 45.32111, 52.16781, 26.67150, -0.35554, 2.32118, 9.70011, 0.00573, 0.07847, 0.03304
139, 3652, 37.19703, 45.32111, 52.16781, 26.67150, -0.38547, 2.39779, 9.71208, 0.00813, 0.08007, 0.03504
140, 3673, 37.19703, 45.32111, 52.16781, 26.62040, -0.36152, 2.34392, 9.78750, 0.00613, 0.07847, 0.03211
141, 3698, 37.19703, 45.32111, 52.16781, 26.67150, -0.36512, 2.36188, 9.76834, 0.00506, 0.07994, 0.03277
142, 3719, 37.19703, 45.32111, 52.16781, 26.62040, -0.38307, 2.31280, 9.76475, 0.00679, 0.07834, 0.03317
143, 3740, 37.19703, 45.32111, 52.16781, 26.67150, -0.39983, 2.32357, 9.71567, 0.00826, 0.07754, 0.03437
144, 3761, 37.19703, 45.32111, 52.16781, 26.62040, -0.36631, 2.25534, 9.70969, 0.00799, 0.07861, 0.03477
145, 3782, 37.19703, 45.32111, 52.16781, 26.62040, -0.39504, 2.28646, 9.71447, 0.01013, 0.07861, 0.03304
146, 3807, 37.19703, 45.32111, 52.16781, 26.67150, -0.38307, 2.27569, 9.76595, 0.00866, 0.07994, 0.03238
147, 3828, 37.19703, 45.32111, 52.16781, 26.62040, -0.35554, 2.22900, 9.80306, 0.00879, 0.08021, 0.03317
148, 3849, 37.19703, 45.32111, 52.16781, 26.67150, -0.33998, 2.29245, 9.77672, 0.00640, 0.08140, 0.03104
149, 3870, 37.19703, 45.32111, 52.16781, 26.67150, -0.40582, 2.28527, 9.82102, 0.01026, 0.08007, 0.03064
150, 3891, 37.19703, 45.32111, 52.16781, 26.67150, -0.46088, 2.27569, 9.74081, 0.00919, 0.08007, 0.03158
151, 3925, 37.19703, 45.32111, 52.16781, 26.67150, -0.37948, 2.28886, 9.73243, 0.00799, 0.07954, 0.03264
152, 3947, 37.19703, 45.32111, 52.16781, 26.67150, -0.40582, 2.31998, 9.76595, 0.00773, 0.07901, 0.03291
153, 3968, 37.19703, 45.32111, 52.16781, 26.67150, -0.36392, 2.35230, 9.73842, 0.00853, 0.08100, 0.03198
154, 3990, 37.19703, 45.32111, 52.16781, 26.62040, -0.33639, 2.31160, 9.76236, 0.00933, 0.08114, 0.03317
155, 4011, 37.19703, 45.32111, 52.16781, 26.62040, -0.36751, 2.26970, 9.75877, 0.00759, 0.07927, 0.03158
156, 4036, 37.19703, 45.32111, 52.16781, 26.62040, -0.39863, 2.25893, 9.77433, 0.00759, 0.08127, 0.03397
157, 4057, 37.19703, 45.32111, 52.16781, 26.67150, -0.41539, 2.32477, 9.80665, 0.00853, 0.07714, 0.03251
158, 4079, 37.19703, 45.32111, 52.16781, 26.67150, -0.35195, 2.29724, 9.70131, 0.00973, 0.07861, 0.03397
159, 4100, 37.19703, 45.32111, 52.16781, 26.67150, -0.39265, 2.30442, 9.75158, 0.00946, 0.08060, 0.03411
160, 4125, 37.19703, 45.32111, 52.16781, 26.67150, -0.37350, 2.28527, 9.70370, 0.00719, 0.07887, 0.03357
161, 4146, 37.19703, 45.32111, 52.16781, 26.67150, -0.38307, 2.28766, 9.72525, 0.00853, 0.08021, 0.03224
162, 4168, 37.19703, 45.32111, 52.16781, 26.62040, -0.38547, 2.30202, 9.79228, 0.00693, 0.07941, 0.03384
163, 4189, 37.19703, 45.32111, 52.16781, 26.62040, -0.41420, 2.28646, 9.73243, 0.00893, 0.07647, 0.03211
164, 4211, 37.19703, 45.32111, 52.16781, 26.67150, -0.35913, 2.27808, 9.69293, 0.01039, 0.07821, 0.03317
165, 4236, 37.19703, 45.32111, 52.16781, 26.67150, -0.35554, 2.31280, 9.76475, 0.00946, 0.07941, 0.03331
166, 4257, 37.19703, 45.32111, 52.16781, 26.62040, -0.37828, 2.28167, 9.79348, 0.00919, 0.07967, 0.03411
167, 4279, 37.19703, 45.32111, 52.16781, 26.67150, -0.35434, 2.27808, 9.76595, 0.00679, 0.07914, 0.03331
168, 4300, 37.19703, 45.32111, 52.16781, 26.62040, -0.37110, 2.25893, 9.82341, 0.00906, 0.08060, 0.03357
169, 4321, 37.19703, 45.32111, 52.16781, 26.67150, -0.36871, 2.30322, 9.72644, 0.00919, 0.07901, 0.03371
170, 4346, 37.19703, 45.32111, 52.16781, 26.67150, -0.38547, 2.28886, 9.74440, 0.00786, 0.08021, 0.03304
171, 4368, 37.19703, 45.32111, 52.16781, 26.67150, -0.36152, 2.28167, 9.81024, 0.00959, 0.08034, 0.03317
172, 4389, 37.19703, 45.32111, 52.16781, 26.67150, -0.40103, 2.27210, 9.71687, 0.01092, 0.07994, 0.03291
173, 4411, 37.19703, 45.32111, 52.16781, 26.62040, -0.38666, 2.29365, 9.76236, 0.00893, 0.08021, 0.03384
174, 4432, 37.19703, 45.32111, 52.16781, 26.67150, -0.38906, 2.29604, 9.71208, 0.00813, 0.08021, 0.03078
175, 4457, 37.19703, 45.32111, 52.16781, 26.67150, -0.36152, 2.29963, 9.94911, 0.00946, 0.08140, 0.03384
176, 4479, 37.19703, 45.32111, 52.16781, 26.67150, -0.42138, 2.28407, 9.82940, 0.00773, 0.07634, 0.03384
177, 4500, 37.19703, 45.32111, 52.16781, 26.67150, -0.32920, 2.27090, 9.65462, 0.00933, 0.07901, 0.03384
178, 4521, 37.19703, 45.32111, 52.16781, 26.67150, -0.37469, 2.32956, 9.76116, 0.00666, 0.07874, 0.03317
179, 4543, 37.19703, 45.32111, 52.16781, 26.67150, -0.39385, 2.27689, 9.74081, 0.00906, 0.07954, 0.03224
180, 4568, 37.19703, 45.32111, 52.16781, 26.67150, -0.37230, 2.28646, 9.74560, 0.00919, 0.07954, 0.03251
181, 4589, 37.19703, 45.32111, 52.16781, 26.62040, -0.41539, 2.29604, 9.74560, 0.00959, 0.07941, 0.03317
182, 4611, 37.19703, 45.32111, 52.16781, 26.67150, -0.40821, 2.33794, 9.66300, 0.01079, 0.08007, 0.03344
183, 4632, 37.19703, 45.32111, 52.16781, 26.67150, -0.39863, 2.28766, 9.77553, 0.00853, 0.08021, 0.03277
184, 4654, 37.19703, 45.32111, 52.16781, 26.67150, -0.41300, 2.30442, 9.74440, 0.00933, 0.07887, 0.03424
185, 4678, 37.19703, 45.32111, 52.16781, 26.67150, -0.41659, 2.29724, 9.76595, 0.00759, 0.07954, 0.03184
186, 4700, 37.19703, 45.32111, 52.16781, 26.62040, -0.39265, 2.30681, 9.75877, 0.00813, 0.07994, 0.03184
187, 4721, 37.19703, 45.32111, 52.16781, 26.67150, -0.40342, 2.30681, 9.77074, 0.00826, 0.08021, 0.03277
188, 4742, 37.19703, 45.32111, 52.16781, 26.62040, -0.38427, 2.30562, 9.76954, 0.00773, 0.08060, 0.03264
189, 4777, 37.19703, 45.32111, 52.16781, 26.62040, -0.39385, 2.29843, 9.70849, 0.00746, 0.07874, 0.03371
190, 4797, 37.19703, 45.32111, 52.16781, 26.67150, -0.39145, 2.29604, 9.78031, 0.00773, 0.08034, 0.03277
191, 4817, 37.19703, 45.32111, 52.16781, 26.67150, -0.36990, 2.28048, 9.72764, 0.00906, 0.07954, 0.03171
192, 4837, 37.19703, 45.32111, 52.16781, 26.67150, -0.39265, 2.27808, 9.73004, 0.00933, 0.07927, 0.03331
193, 4858, 37.19703, 45.32111, 52.16781, 26.67150, -0.36152, 2.28766, 9.73004, 0.00986, 0.07874, 0.03451
194, 4881, 37.19703, 45.32111, 52.16781, 26.67150, -0.38068, 2.31160, 9.73722, 0.00986, 0.07754, 0.03211
195, 4901, 37.19703, 45.32111, 52.11671, 26.67150, -0.39624, 2.32716, 9.73842, 0.00946, 0.07847, 0.03251
196, 4921, 37.19703, 45.32111, 52.16781, 26.67150, -0.36871, 2.28527, 9.75877, 0.00679, 0.08060, 0.03304
197, 4942, 37.19703, 45.32111, 52.16781, 26.62040, -0.35674, 2.27808, 9.71806, 0.01039, 0.07901, 0.03238
198, 4962, 37.19703, 45.32111, 52.16781, 26.67150, -0.39744, 2.29843, 9.76355, 0.00853, 0.08021, 0.03344
199, 4985, 37.19703, 45.32111, 52.16781, 26.67150, -0.37469, 2.30681, 9.78391, 0.00826, 0.07954, 0.03317
200, 5006, 37.19703, 45.32111, 52.16781, 26.67150, -0.38188, 2.33554, 9.77792, 0.00839, 0.07834, 0.03411
201, 5026, 37.19703, 45.32111, 52.16781, 26.67150, -0.41539, 2.26252, 9.71567, 0.00933, 0.08021, 0.03464
202, 5046, 37.19703, 45.32111, 52.16781, 26.62040, -0.39145, 2.33914, 9.69771, 0.00893, 0.08100, 0.03424
203, 5066, 37.19703, 45.32111, 52.16781, 26.67150, -0.37948, 2.27689, 9.77313, 0.00906, 0.07927, 0.03344
204, 5090, 37.19703, 45.32111, 52.16781, 26.62040, -0.36871, 2.27329, 9.76236, 0.00906, 0.08034, 0.03171
205, 5110, 37.19703, 45.32111, 52.16781, 26.67150, -0.38427, 2.29245, 9.74799, 0.00893, 0.08140, 0.03331
206, 5130, 37.19703, 45.32111, 52.16781, 26.67150, -0.36871, 2.29484, 9.78151, 0.00893, 0.08100, 0.03411
207, 5151, 37.19703, 45.32111, 52.16781, 26.62040, -0.37948, 2.30801, 9.77193, 0.00906, 0.07901, 0.03357
208, 5171, 37.19703, 45.32111, 52.16781, 26.67150, -0.37709, 2.29963, 9.76834, 0.00879, 0.07981, 0.03384
209, 5194, 37.19703, 45.32111, 52.16781, 26.62040, -0.34836, 2.27808, 9.73842, 0.00733, 0.07954, 0.03344
210, 5215, 37.19703, 45.32111, 52.16781, 26.67150, -0.39983, 2.28167, 9.72405, 0.01013, 0.07754, 0.03424
211, 5235, 37.19703, 45.32111, 52.16781, 26.67150, -0.37110, 2.30921, 9.77672, 0.01132, 0.07807, 0.03317
212, 5255, 37.19703, 45.32111, 52.16781, 26.67150, -0.38427, 2.32238, 9.71687, 0.00986, 0.07781, 0.03251
213, 5275, 37.19703, 45.32111, 52.16781, 26.67150, -0.35554, 2.29604, 9.73243, 0.00813, 0.07901, 0.03357
214, 5299, 37.19703, 45.32111, 52.16781, 26.67150, -0.38068, 2.27329, 9.73363, 0.00893, 0.07874, 0.03251
215, 5319, 37.19703, 45.32111, 52.16781, 26.67150, -0.36990, 2.29604, 9.77672, 0.00786, 0.07981, 0.03304
216, 5339, 37.19703, 45.32111, 52.16781, 26.67150, -0.34477, 2.32956, 9.77553, 0.00933, 0.07847, 0.03464
217, 5360, 37.19703, 45.32111, 52.16781, 26.67150, -0.40462, 2.30921, 9.74440, 0.01026, 0.08047, 0.03331
218, 5383, 37.19703, 45.32111, 52.16781, 26.67150, -0.39025, 2.28407, 9.71088, 0.00893, 0.07807, 0.03251
219, 5403, 37.19703, 45.32111, 52.16781, 26.67150, -0.36871, 2.29963, 9.70729, 0.00799, 0.08021, 0.03531
220, 5424, 37.19703, 45.32111, 52.16781, 26.62040, -0.38068, 2.34153, 9.78151, 0.00853, 0.07887, 0.03291
221, 5452, 37.19703, 45.32111, 52.16781, 26.67150, -0.35434, 2.30562, 9.75398, 0.00919, 0.07941, 0.03504
222, 5473, 37.19703, 45.32111, 52.16781, 26.67150, -0.37589, 2.30801, 9.74799, 0.00879, 0.07994, 0.03397
223, 5496, 37.19703, 45.32111, 52.16781, 26.67150, -0.41659, 2.29484, 9.73482, 0.00799, 0.08034, 0.03224
224, 5516, 37.19703, 45.32111, 52.16781, 26.67150, -0.36990, 2.30801, 9.69652, 0.00773, 0.08034, 0.03251
225, 5536, 37.19703, 45.32111, 52.16781, 26.67150, -0.39145, 2.31998, 9.77553, 0.00866, 0.07941, 0.03211
226, 5556, 37.19703, 45.32111, 52.16781, 26.67150, -0.39624, 2.25654, 9.73363, 0.00919, 0.07954, 0.03317
227, 5576, 37.19703, 45.32111, 52.16781, 26.67150, -0.37948, 2.29245, 9.71687, 0.00893, 0.08007, 0.03331
228, 5609, 37.19703, 45.32111, 52.16781, 26.67150, -0.40582, 2.31160, 9.74201, 0.00893, 0.07994, 0.03411
229, 5630, 37.19703, 45.32111, 52.16781, 26.62040, -0.50518, 2.30322, 9.76116, 0.00813, 0.08060, 0.03344
230, 5651, 37.19703, 45.32111, 52.16781, 26.67150, -0.45969, 2.32956, 9.79947, 0.00973, 0.08021, 0.03238
231, 5672, 37.19703, 45.32111, 52.16781, 26.67150, -0.43215, 2.31878, 9.79348, 0.00919, 0.07901, 0.03264
232, 5693, 37.19703, 45.32111, 52.16781, 26.67150, -0.41539, 2.29125, 9.69891, 0.00986, 0.07927, 0.03264
233, 5718, 37.19703, 45.32111, 52.16781, 26.62040, -0.39025, 2.26013, 9.77553, 0.00826, 0.08127, 0.03304
234, 5739, 37.19703, 45.32111, 52.16781, 26.67150, -0.37589, 2.32118, 9.75637, 0.00866, 0.08007, 0.03264
235, 5760, 37.19703, 45.32111, 52.16781, 26.67150, -0.41420, 2.30921, 9.74081, 0.00973, 0.07767, 0.03317
236, 5781, 37.19703, 45.32111, 52.16781, 26.67150, -0.39863, 2.31519, 9.72046, 0.00946, 0.07807, 0.03317
237, 5802, 37.19703, 45.32111, 52.16781, 26.67150, -0.37350, 2.28407, 9.71926, 0.00919, 0.07954, 0.03397
238, 5827, 37.19703, 45.32111, 52.16781, 26.67150, -0.38427, 2.27808, 9.72644, 0.01119, 0.07901, 0.03344
239, 5848, 37.19703, 45.32111, 52.16781, 26.67150, -0.37110, 2.29724, 9.72046, 0.00759, 0.07954, 0.03397
240, 5869, 37.19703, 45.32111, 52.16781, 26.67150, -0.40103, 2.30442, 9.75517, 0.00986, 0.07847, 0.03184
241, 5890, 37.19703, 45.32111, 52.16781, 26.67150, -0.38068, 2.27449, 9.73363, 0.01026, 0.07861, 0.03277
242, 5911, 37.19703, 45.32111, 52.16781, 26.67150, -0.39385, 2.28766, 9.73602, 0.00999, 0.07887, 0.03198
243, 5936, 37.19703, 45.32111, 52.16781, 26.67150, -0.37828, 2.29245, 9.72405, 0.00813, 0.07941, 0.03371
244, 5957, 37.19703, 45.32111, 52.16781, 26.67150, -0.36990, 2.30801, 9.77912, 0.00706, 0.07954, 0.03357
245, 5978, 37.19703, 45.32111, 52.16781, 26.67150, -0.38427, 2.30681, 9.72166, 0.00813, 0.08021, 0.03238
246, 5999, 37.19703, 45.32111, 52.16781, 26.67150, -0.37110, 2.30562, 9.76116, 0.00906, 0.07941, 0.03437
247, 6024, 37.19703, 45.32111, 52.16781, 26.67150, -0.37110, 2.30801, 9.75158, 0.00959, 0.08007, 0.03384
248, 6045, 37.19703, 45.32111, 52.16781, 26.67150, -0.38188, 2.25534, 9.73123, 0.00933, 0.08074, 0.03371
249, 6066, 37.19703, 45.32111, 52.16781, 26.67150, -0.39744, 2.30322, 9.72764, 0.01132, 0.07967, 0.03384
250, 6088, 37.19703, 45.32111, 52.16781, 26.67150, -0.36512, 2.33435, 9.75278, 0.00839, 0.07767, 0.03224
251, 6109, 37.19703, 45.32111, 52.16781, 26.67150, -0.39504, 2.31040, 9.74560, 0.01039, 0.08047, 0.03211
252, 6133, 37.19703, 45.32111, 52.16781, 26.67150, -0.37709, 2.30921, 9.77313, 0.00959, 0.08060, 0.03437
253, 6154, 37.19703, 45.32111, 52.16781, 26.67150, -0.41180, 2.31040, 9.74081, 0.00919, 0.08114, 0.03277
254, 6176, 37.19703, 45.32111, 52.16781, 26.67150, -0.38906, 2.31160, 9.74081, 0.00959, 0.07994, 0.03371
255, 6197, 37.19703, 45.32111, 52.16781, 26.67150, -0.38307, 2.32118, 9.71567, 0.00946, 0.08047, 0.03211
256, 6218, 37.19703, 45.32111, 52.16781, 26.67150, -0.34955, 2.29005, 9.77074, 0.00906, 0.07847, 0.03304
257, 6242, 37.19703, 45.32111, 52.16781, 26.67150, -0.36152, 2.32597, 9.69412, 0.01039, 0.07981, 0.03277
258, 6264, 37.19703, 45.32111, 52.16781, 26.67150, -0.38068, 2.30921, 9.78031, 0.00759, 0.07941, 0.03331
259, 6285, 37.19703, 45.32111, 52.16781, 26.62040, -0.38068, 2.31280, 9.70370, 0.00813, 0.08047, 0.03304
260, 6306, 37.19703, 45.32111, 52.16781, 26.67150, -0.39385, 2.28766, 9.65582, 0.00906, 0.08007, 0.03464
261, 6327, 37.19703, 45.32111, 52.16781, 26.67150, -0.38427, 2.31998, 9.77193, 0.00853, 0.08007, 0.03584
262, 6351, 37.19703, 45.32111, 52.16781, 26.62040, -0.35793, 2.29843, 9.74679, 0.00933, 0.08100, 0.03184
263, 6373, 37.19703, 45.32111, 52.16781, 26.67150, -0.38906, 2.31400, 9.77912, 0.00946, 0.07954, 0.03251
264, 6394, 37.19703, 45.32111, 52.16781, 26.67150, -0.36751, 2.29245, 9.70370, 0.01039, 0.07927, 0.03304
265, 6415, 37.19703, 45.32111, 52.16781, 26.67150, -0.38786, 2.29245, 9.73961, 0.00879, 0.07994, 0.03291
266, 6436, 37.19703, 45.32111, 52.16781, 26.67150, -0.37350, 2.30202, 9.68694, 0.00973, 0.08087, 0.03304
267, 6470, 37.19703, 45.32111, 52.16781, 26.62040, -0.39265, 2.26731, 9.71208, 0.00933, 0.07741, 0.03264
268, 6492, 37.19703, 45.32111, 52.16781, 26.67150, -0.41420, 2.27090, 9.69652, 0.00853, 0.07954, 0.03211
269, 6513, 37.19703, 45.32111, 52.16781, 26.67150, -0.38906, 2.27689, 9.72764, 0.00733, 0.07781, 0.03331
270, 6534, 37.19703, 45.32111, 52.16781, 26.67150, -0.39983, 2.31400, 9.75398, 0.00733, 0.08194, 0.03331
271, 6556, 37.19703, 45.32111, 52.16781, 26.67150, -0.37110, 2.29724, 9.81503, 0.01079, 0.07954, 0.03384
272, 6581, 37.19703, 45.32111, 52.16781, 26.67150, -0.41061, 2.29724, 9.72166, 0.00866, 0.07941, 0.03397
273, 6602, 37.19703, 45.32111, 52.16781, 26.67150, -0.40821, 2.30921, 9.73243, 0.00959, 0.07994, 0.03277
274, 6623, 37.19703, 45.32111, 52.16781, 26.67150, -0.37469, 2.33315, 9.76116, 0.00853, 0.07967, 0.03264
275, 6645, 37.19703, 45.32111, 52.16781, 26.62040, -0.38666, 2.30681, 9.79109, 0.00986, 0.08007, 0.03357
276, 6670, 37.19703, 45.32111, 52.16781, 26.67150, -0.39385, 2.28886, 9.74201, 0.00906, 0.08127, 0.03238
277, 6691, 37.19703, 45.32111, 52.16781, 26.67150, -0.36033, 2.27090, 9.74919, 0.00919, 0.07847, 0.03344
278, 6713, 37.19703, 45.32111, 52.16781, 26.67150, -0.40342, 2.28527, 9.75398, 0.00893, 0.08021, 0.03357
279, 6734, 37.19703, 45.32111, 52.16781, 26.67150, -0.39744, 2.32118, 9.72405, 0.00773, 0.08021, 0.03331
280, 6756, 37.19703, 45.32111, 52.16781, 26.67150, -0.39504, 2.30083, 9.76715, 0.01026, 0.08100, 0.03184
281, 6780, 37.19703, 45.32111, 52.16781, 26.67150, -0.37110, 2.30921, 9.68574, 0.00839, 0.08060, 0.03357
282, 6802, 37.19703, 45.32111, 52.16781, 26.67150, -0.38307, 2.30202, 9.70011, 0.00879, 0.08047, 0.03317
283, 6823, 37.19703, 45.32111, 52.16781, 26.67150, -0.39744, 2.30322, 9.77912, 0.01026, 0.07954, 0.03411
284, 6845, 37.19703, 45.32111, 52.16781, 26.67150, -0.34237, 2.30442, 9.72525, 0.00933, 0.07874, 0.03277
285, 6866, 37.19703, 45.32111, 52.16781, 26.67150, -0.37828, 2.29365, 9.72285, 0.00853, 0.07967, 0.03238
286, 6891, 37.19703, 45.32111, 52.16781, 26.67150, -0.38427, 2.34871, 9.79707, 0.00959, 0.07914, 0.03131
287, 6913, 37.19703, 45.32111, 52.16781, 26.67150, -0.35195, 2.32956, 9.72166, 0.00759, 0.07807, 0.03158
288, 6934, 37.19703, 45.32111, 52.16781, 26.67150, -0.36871, 2.30083, 9.71926, 0.00959, 0.07941, 0.03331
289, 6955, 37.19703, 45.32111, 52.16781, 26.67150, -0.38906, 2.29843, 9.74679, 0.00986, 0.08060, 0.03251
290, 6977, 37.19703, 45.32111, 52.16781, 26.67150, -0.38427, 2.29724, 9.75757, 0.00986, 0.07981, 0.03331
291, 7002, 37.19703, 45.32111, 52.16781, 26.67150, -0.40223, 2.30083, 9.72285, 0.00933, 0.08087, 0.03291
292, 7023, 37.19703, 45.32111, 52.16781, 26.67150, -0.37948, 2.34991, 9.73602, 0.00919, 0.07914, 0.03264
293, 7045, 37.19703, 45.32111, 52.16781, 26.67150, -0.34596, 2.28287, 9.76595, 0.00986, 0.08060, 0.03317
294, 7066, 37.19703, 45.32111, 52.16781, 26.67150, -0.38786, 2.32118, 9.74919, 0.00919, 0.07887, 0.03331
295, 7088, 37.19703, 45.32111, 52.16781, 26.67150, -0.37589, 2.29125, 9.72764, 0.00759, 0.07967, 0.03211
296, 7113, 37.19703, 45.32111, 52.16781, 26.67150, -0.37469, 2.29484, 9.76475, 0.00933, 0.07981, 0.03344
297, 7134, 37.19703, 45.32111, 52.16781, 26.67150, -0.35075, 2.32956, 9.73961, 0.00799, 0.08021, 0.03344
298, 7155, 37.19703, 45.32111, 52.16781, 26.62040, -0.38906, 2.27569, 9.76116, 0.00919, 0.07847, 0.03291
299, 7177, 37.19703, 45.32111, 52.16781, 26.67150, -0.37948, 2.27090, 9.70250, 0.00839, 0.07821, 0.03291
300, 7198, 37.19703, 45.32111, 52.16781, 26.67150, -0.37469, 2.31878, 9.70969, 0.00959, 0.08060, 0.03238
301, 7223, 37.19703, 45.32111, 52.16781, 26.67150, -0.36272, 2.36547, 9.73243, 0.00866, 0.07927, 0.03304
302, 7245, 37.19703, 45.32111, 52.16781, 26.67150, -0.37948, 2.33554, 9.75398, 0.00786, 0.07941, 0.03344
303, 7266, 37.19703, 45.32111, 52.16781, 26.67150, -0.41180, 2.28527, 9.74560, 0.00919, 0.07954, 0.03344
304, 7287, 37.19703, 45.32111, 52.16781, 26.67150, -0.38068, 2.30442, 9.72285, 0.00786, 0.08087, 0.03317
305, 7322, 37.19703, 45.32111, 52.16781, 26.67150, -0.38906, 2.31400, 9.72764, 0.00946, 0.08127, 0.03251
306, 7342, 37.19703, 45.32111, 52.16781, 26.67150, -0.36272, 2.29125, 9.77193, 0.00866, 0.07941, 0.03424
307, 7362, 37.19703, 45.32111, 52.16781, 26.67150, -0.38427, 2.27449, 9.75039, 0.00919, 0.07954, 0.03291
308, 7382, 37.19703, 45.32111, 52.16781, 26.67150, -0.37110, 2.28048, 9.75398, 0.00879, 0.07914, 0.03397
309, 7402, 37.19703, 45.32111, 52.16781, 26.67150, -0.37589, 2.26611, 9.78989, 0.00959, 0.08047, 0.03264
310, 7426, 37.19703, 45.32111, 52.16781, 26.67150, -0.35913, 2.31998, 9.78750, 0.01039, 0.07861, 0.03277
311, 7446, 37.19703, 45.32111, 52.16781, 26.67150, -0.38547, 2.29125, 9.77313, 0.00973, 0.07941, 0.03357
312, 7466, 37.19703, 45.32111, 52.16781, 26.67150, -0.39385, 2.29843, 9.75398, 0.00959, 0.07887, 0.03304
313, 7487, 37.19703, 45.32111, 52.16781, 26.67150, -0.39863, 2.29365, 9.73363, 0.00826, 0.08021, 0.03171
314, 7507, 37.19703, 45.32111, 52.16781, 26.67150, -0.39385, 2.30322, 9.76715, 0.00839, 0.08100, 0.03384
315, 7530, 37.19703, 45.32111, 52.16781, 26.67150, -0.42737, 2.30681, 9.72285, 0.00973, 0.08167, 0.03304
316, 7550, 37.19703, 45.32111, 52.16781, 26.67150, -0.36751, 2.32956, 9.76834, 0.00933, 0.07981, 0.03224
317, 7571, 37.19703, 45.32111, 52.16781, 26.67150, -0.37948, 2.29245, 9.69652, 0.00786, 0.07954, 0.03224
318, 7591, 37.19703, 45.32111, 52.16781, 26.67150, -0.35913, 2.29724, 9.69652, 0.00946, 0.07994, 0.03211
319, 7611, 37.19703, 45.32111, 52.16781, 26.67150, -0.37350, 2.29125, 9.72644, 0.01013, 0.07887, 0.03317
320, 7635, 37.19703, 45.32111, 52.16781, 26.67150, -0.38786, 2.29125, 9.80426, 0.00906, 0.08007, 0.03224
321, 7655, 37.19703, 45.32111, 52.16781, 26.67150, -0.38666, 2.30083, 9.74919, 0.00786, 0.07994, 0.03424
322, 7675, 37.19703, 45.32111, 52.16781, 26.67150, -0.39265, 2.28167, 9.70250, 0.00893, 0.07967, 0.03251
323, 7696, 37.19703, 45.32111, 52.16781, 26.67150, -0.38547, 2.27329, 9.75996, 0.00906, 0.07954, 0.03264
324, 7716, 37.19703, 45.32111, 52.16781, 26.67150, -0.38666, 2.32716, 9.74679, 0.00746, 0.07874, 0.03357
325, 7739, 37.19703, 45.32111, 52.16781, 26.67150, -0.42138, 2.27329, 9.76355, 0.00919, 0.08060, 0.03331
326, 7760, 37.19703, 45.32111, 52.16781, 26.67150, -0.37230, 2.29604, 9.77792, 0.00866, 0.07847, 0.03344
327, 7780, 37.19703, 45.32111, 52.16781, 26.67150, -0.37589, 2.27569, 9.74320, 0.00826, 0.08060, 0.03131
328, 7800, 37.19703, 45.32111, 52.16781, 26.67150, -0.42377, 2.30322, 9.74320, 0.01079, 0.07901, 0.03277
329, 7823, 37.19703, 45.32111, 52.16781, 26.67150, -0.36871, 2.27928, 9.76355, 0.00813, 0.07901, 0.03344
330, 7844, 37.19703, 45.32111, 52.16781, 26.92697, -0.36871, 2.27808, 9.78869, 0.00866, 0.07887, 0.03211
331, 7864, 37.19703, 45.32111, 52.16781, 26.67150, -0.39265, 2.30202, 9.72644, 0.00933, 0.08180, 0.03171
332, 7884, 37.19703, 45.32111, 52.16781, 26.67150, -0.42497, 2.28886, 9.76355, 0.00986, 0.08007, 0.03331
333, 7905, 37.19703, 45.32111, 52.16781, 26.67150, -0.37589, 2.31639, 9.77313, 0.01026, 0.07887, 0.03291
334, 7936, 37.19703, 45.32111, 52.16781, 26.67150, -0.39145, 2.28287, 9.76116, 0.00879, 0.07874, 0.03384
335, 7957, 37.19703, 45.32111, 52.16781, 26.67150, -0.38427, 2.32956, 9.75517, 0.00906, 0.07914, 0.03224
336, 7977, 37.19703, 45.32111, 52.16781, 26.67150, -0.41779, 2.29245, 9.78271, 0.00933, 0.07887, 0.03464
337, 7997, 37.19703, 45.32111, 52.16781, 26.67150, -0.37110, 2.27928, 9.74201, 0.00973, 0.08034, 0.03304
338, 8017, 37.19703, 45.32111, 52.16781, 26.67150, -0.36871, 2.33315, 9.77193, 0.00973, 0.07941, 0.03211
339, 8040, 37.19703, 45.32111, 52.16781, 26.62040, -0.37110, 2.30681, 9.75637, 0.01039, 0.08074, 0.03424
340, 8061, 37.19703, 45.32111, 52.16781, 26.67150, -0.38786, 2.30202, 9.77672, 0.00999, 0.08167, 0.03277
341, 8081, 37.19703, 45.32111, 52.11671, 26.67150, -0.37230, 2.24816, 9.75877, 0.00879, 0.08114, 0.03211
342, 8101, 37.19703, 45.32111, 52.16781, 26.67150, -0.37828, 2.28048, 9.72285, 0.01039, 0.08007, 0.03304
343, 8121, 37.19703, 45.32111, 52.16781, 26.67150, -0.41300, 2.28527, 9.75996, 0.00813, 0.08007, 0.03371
344, 8154, 37.19703, 45.32111, 52.16781, 26.67150, -0.38786, 2.29245, 9.73004, 0.00999, 0.07927, 0.03357
345, 8175, 37.19703, 45.32111, 52.16781, 26.67150, -0.37230, 2.28167, 9.73602, 0.00893, 0.07914, 0.03384
346, 8196, 37.19703, 45.32111, 52.16781, 26.67150, -0.39025, 2.34033, 9.76116, 0.00799, 0.08034, 0.03331
347, 8217, 37.19703, 45.32111, 52.16781, 26.67150, -0.37350, 2.29484, 9.77433, 0.00933, 0.07967, 0.03198
348, 8238, 37.19703, 45.32111, 52.16781, 26.67150, -0.36512, 2.33674, 9.78750, 0.00826, 0.07954, 0.03464
349, 8263, 37.19703, 45.32111, 52.16781, 26.67150, -0.38427, 2.30083, 9.74799, 0.00799, 0.07781, 0.03331
350, 8284, 37.19703, 45.32111, 52.16781, 26.67150, -0.40462, 2.26731, 9.73842, 0.00773, 0.08047, 0.03224
351, 8305, 37.19703, 45.32111, 52.16781, 26.67150, -0.41899, 2.30322, 9.72764, 0.00879, 0.08194, 0.03291
352, 8326, 37.19703, 45.32111, 52.16781, 26.67150, -0.36033, 2.34033, 9.77792, 0.00999, 0.07954, 0.03317
353, 8347, 37.19703, 45.32111, 52.16781, 26.67150, -0.39624, 2.30562, 9.77672, 0.00866, 0.08140, 0.03371
354, 8372, 37.19703, 45.32111, 52.16781, 26.67150, -0.37350, 2.31280, 9.73961, 0.00786, 0.07994, 0.03477
355, 8393, 37.19703, 45.32111, 52.16781, 26.67150, -0.36751, 2.28527, 9.71926, 0.00866, 0.07994, 0.03437
356, 8414, 37.19703, 45.32111, 52.16781, 26.67150, -0.39385, 2.27689, 9.75158, 0.00826, 0.07741, 0.03304
357, 8435, 37.19703, 45.32111, 52.16781, 26.62040, -0.36033, 2.26611, 9.79348, 0.00866, 0.07914, 0.03171
358, 8460, 37.19703, 45.32111, 52.16781, 26.67150, -0.38547, 2.29365, 9.74440, 0.00786, 0.07954, 0.03238
359, 8481, 37.19703, 45.32111, 52.16781, 26.67150, -0.36751, 2.29125, 9.78031, 0.00959, 0.07901, 0.03384
360, 8502, 37.19703, 45.32111, 52.16781, 26.62040, -0.39265, 2.30921, 9.73842, 0.00733, 0.08034, 0.03277
361, 8523, 37.19703, 45.32111, 52.16781, 26.67150, -0.36631, 2.30202, 9.73243, 0.00999, 0.07941, 0.03357
362, 8545, 37.19703, 45.32111, 52.16781, 26.67150, -0.39265, 2.30202, 9.77193, 0.00813, 0.07967, 0.03357
363, 8569, 37.19703, 45.32111, 52.16781, 26.67150, -0.39385, 2.28167, 9.78391, 0.00839, 0.07927, 0.03437
364, 8590, 37.19703, 45.32111, 52.16781, 26.67150, -0.37709, 2.32956, 9.78391, 0.00893, 0.08047, 0.03371
365, 8612, 37.19703, 45.32111, 52.16781, 26.67150, -0.37709, 2.29005, 9.75637, 0.00679, 0.08114, 0.03384
366, 8633, 37.19703, 45.32111, 52.16781, 26.67150, -0.37230, 2.30801, 9.72764, 0.00919, 0.08007, 0.03344
367, 8654, 37.19703, 45.32111, 52.16781, 26.67150, -0.39025, 2.28886, 9.73722, 0.00999, 0.07954, 0.03277
368, 8678, 37.19703, 45.32111, 52.16781, 26.67150, -0.37589, 2.30681, 9.74201, 0.00866, 0.08047, 0.03357
369, 8700, 37.19703, 45.32111, 52.16781, 26.67150, -0.36631, 2.30921, 9.75158, 0.01066, 0.07967, 0.03371
370, 8721, 37.19703, 45.32111, 52.16781, 26.67150, -0.41300, 2.33554, 9.75039, 0.00946, 0.08114, 0.03211
371, 8742, 37.19703, 45.32111, 52.16781, 26.67150, -0.41899, 2.27689, 9.77672, 0.00746, 0.08180, 0.03357
372, 8763, 37.19703, 45.32111, 52.16781, 26.67150, -0.36033, 2.31878, 9.72644, 0.01092, 0.07967, 0.03411
373, 8788, 37.19703, 45.32111, 52.16781, 26.67150, -0.39624, 2.29365, 9.74081, 0.00866, 0.07834, 0.03184
374, 8809, 37.19703, 45.32111, 52.16781, 26.67150, -0.37709, 2.29005, 9.75637, 0.00746, 0.07941, 0.03384
375, 8830, 37.19703, 45.32111, 52.16781, 26.67150, -0.38547, 2.31160, 9.70849, 0.00919, 0.07927, 0.03304
376, 8851, 37.19703, 45.32111, 52.16781, 26.67150, -0.39025, 2.31160, 9.75996, 0.01013, 0.07847, 0.03291
377, 8872, 37.19703, 45.32111, 52.16781, 26.67150, -0.38786, 2.32118, 9.76116, 0.00986, 0.07994, 0.03317
378, 8897, 37.19703, 45.32111, 52.16781, 26.67150, -0.36871, 2.27569, 9.70609, 0.00906, 0.08074, 0.03344
379, 8918, 37.19703, 45.32111, 52.16781, 26.67150, -0.35554, 2.26491, 9.74919, 0.00879, 0.07981, 0.03251
380, 8939, 37.19703, 45.32111, 52.16781, 26.67150, -0.40223, 2.29484, 9.71208, 0.00786, 0.08060, 0.03238
381, 8960, 37.19703, 45.32111, 52.16781, 26.67150, -0.35674, 2.30562, 9.74799, 0.00879, 0.07994, 0.03304
382, 8981, 37.19703, 45.32111, 52.16781, 26.67150, -0.37350, 2.30801, 9.70849, 0.00893, 0.07874, 0.03371
383, 9016, 37.19703, 45.32111, 52.16781, 26.67150, -0.36392, 2.30322, 9.73722, 0.00906, 0.08007, 0.03171
384, 9037, 37.19703, 45.32111, 52.16781, 26.67150, -0.37230, 2.29843, 9.74081, 0.00866, 0.08007, 0.03304
385, 9058, 37.19703, 45.32111, 52.16781, 26.67150, -0.38427, 2.31160, 9.76954, 0.01053, 0.08021, 0.03384
386, 9080, 37.19703, 45.32111, 52.16781, 26.67150, -0.36871, 2.29604, 9.74560, 0.00893, 0.08074, 0.03384
387, 9104, 37.19703, 45.32111, 52.16781, 26.67150, -0.40462, 2.29484, 9.75757, 0.00786, 0.07901, 0.03424
388, 9126, 37.19703, 45.32111, 52.16781, 26.67150, -0.38906, 2.27329, 9.76954, 0.00946, 0.07981, 0.03264
389, 9147, 37.19703, 45.32111, 52.16781, 26.67150, -0.38188, 2.24696, 9.74799, 0.00986, 0.08021, 0.03158
390, 9169, 37.19703, 45.32111, 52.16781, 26.67150, -0.37948, 2.29125, 9.75039, 0.00679, 0.08047, 0.03424
391, 9190, 37.19703, 45.32111, 52.16781, 26.67150, -0.39265, 2.28287, 9.70011, 0.00959, 0.07914, 0.03317
392, 9215, 37.19703, 45.32111, 52.16781, 26.67150, -0.38666, 2.29245, 9.72166, 0.00906, 0.07941, 0.03344
393, 9237, 37.19703, 45.32111, 52.16781, 26.67150, -0.37350, 2.30202, 9.74799, 0.00773, 0.07794, 0.03331
394, 9258, 37.19703, 45.32111, 52.16781, 26.67150, -0.33639, 2.30202, 9.79348, 0.00826, 0.08060, 0.03291
395, 9280, 37.19703, 45.32111, 52.16781, 26.67150, -0.37350, 2.28167, 9.76954, 0.00879, 0.08021, 0.03437
396, 9301, 37.19703, 45.32111, 52.16781, 26.67150, -0.38427, 2.31519, 9.73243, 0.00839, 0.07901, 0.03171
397, 9326, 37.19703, 45.32111, 52.16781, 26.67150, -0.35554, 2.31400, 9.76954, 0.00733, 0.08007, 0.03304
398, 9347, 37.19703, 45.32111, 52.16781, 26.67150, -0.43934, 2.30681, 9.74440, 0.00813, 0.08154, 0.03251
399, 9369, 37.19703, 45.32111, 52.16781, 26.67150, -0.37230, 2.28167, 9.72166, 0.01013, 0.07954, 0.03384
400, 9390, 37.19703, 45.32111, 52.16781, 26.67150, -0.38427, 2.31639, 9.75517, 0.00893, 0.07914, 0.03464
401, 9412, 37.19703, 45.32111, 52.16781, 26.67150, -0.34596, 2.28527, 9.70609, 0.00906, 0.07807, 0.03357
402, 9437, 37.19703, 45.32111, 52.16781, 26.67150, -0.38188, 2.28287, 9.75398, 0.00919, 0.08274, 0.03264
403, 9458, 37.19703, 45.32111, 52.16781, 26.67150, -0.39145, 2.29125, 9.74081, 0.00866, 0.07914, 0.03411
404, 9480, 37.19703, 45.32111, 52.16781, 26.67150, -0.37589, 2.27449, 9.77433, 0.00799, 0.07967, 0.03264
405, 9501, 37.19703, 45.32111, 52.16781, 26.67150, -0.42377, 2.26731, 9.81623, 0.00906, 0.08154, 0.03424
406, 9522, 37.19703, 45.32111, 52.16781, 26.67150, -0.40103, 2.26851, 9.72405, 0.00959, 0.07927, 0.03357
407, 9547, 37.19703, 45.32111, 52.16781, 26.67150, -0.34716, 2.29843, 9.74679, 0.00973, 0.07887, 0.03238
408, 9569, 37.19703, 45.32111, 52.16781, 26.67150, -0.36152, 2.31160, 9.72046, 0.00959, 0.07954, 0.03344
409, 9590, 37.19703, 45.32111, 52.16781, 26.67150, -0.40342, 2.31759, 9.76355, 0.00866, 0.07981, 0.03331
410, 9612, 37.19703, 45.32111, 52.16781, 26.67150, -0.38188, 2.25414, 9.72884, 0.00853, 0.07901, 0.03357
411, 9633, 37.19703, 45.32111, 52.16781, 26.67150, -0.38786, 2.31998, 9.78031, 0.00959, 0.08114, 0.03371
412, 9658, 37.19703, 45.32111, 52.16781, 26.67150, -0.38307, 2.31998, 9.76715, 0.00879, 0.07914, 0.03184
413, 9680, 37.19703, 45.32111, 52.16781, 26.67150, -0.37828, 2.30681, 9.76475, 0.01119, 0.08007, 0.03344
414, 9701, 37.19703, 45.32111, 52.16781, 26.67150, -0.37828, 2.32716, 9.72764, 0.00933, 0.08100, 0.03211
415, 9723, 37.19703, 45.32111, 52.16781, 26.67150, -0.41300, 2.30083, 9.73243, 0.00999, 0.08034, 0.03291
416, 9747, 37.19703, 45.32111, 52.16781, 26.67150, -0.39983, 2.29365, 9.77792, 0.00773, 0.07927, 0.03437
417, 9769, 37.19703, 45.32111, 52.16781, 26.67150, -0.40701, 2.33195, 9.75278, 0.00893, 0.07914, 0.03317
418, 9790, 37.19703, 45.32111, 52.16781, 26.67150, -0.41659, 2.30083, 9.74919, 0.00959, 0.08021, 0.03331
419, 9811, 37.19703, 45.32111, 52.16781, 26.62040, -0.39145, 2.26851, 9.79827, 0.01053, 0.08114, 0.03198
420, 9833, 37.19703, 45.32111, 52.16781, 26.67150, -0.35195, 2.28766, 9.74919, 0.00893, 0.07927, 0.03171
421, 9868, 37.19703, 45.32111, 52.16781, 26.67150, -0.37709, 2.33554, 9.78151, 0.00959, 0.07967, 0.03371
422, 9887, 37.19703, 45.32111, 52.16781, 26.67150, -0.41061, 2.31759, 9.71567, 0.00879, 0.08034, 0.03291
423, 9908, 37.19703, 45.32111, 52.16781, 26.67150, -0.42258, 2.29724, 9.77313, 0.00879, 0.08047, 0.03277
424, 9928, 37.19703, 45.32111, 52.16781, 26.62040, -0.38786, 2.31160, 9.79109, 0.01039, 0.07981, 0.03238
425, 9948, 37.19703, 45.32111, 52.16781, 26.67150, -0.38786, 2.28886, 9.70969, 0.00853, 0.07967, 0.03224
426, 9971, 37.19703, 45.32111, 52.16781, 26.67150, -0.37350, 2.32477, 9.76475, 0.00919, 0.07901, 0.03118
427, 9991, 37.19703, 45.32111, 52.16781, 26.67150, -0.37828, 2.29484, 9.76475, 0.00813, 0.07981, 0.03451
428, 10012, 37.19703, 45.32111, 52.16781, 26.67150, -0.37350, 2.31878, 9.69173, 0.00853, 0.07927, 0.03291
429, 10032, 37.19703, 45.32111, 52.16781, 26.67150, -0.42258, 2.33435, 9.76954, 0.00933, 0.07954, 0.03411
430, 10052, 37.19703, 45.32111, 52.16781, 26.67150, -0.40103, 2.31639, 9.74560, 0.00879, 0.07981, 0.03317
431, 10076, 37.19703, 45.32111, 52.16781, 26.67150, -0.39025, 2.32836, 9.74201, 0.00879, 0.07994, 0.03344
432, 10096, 37.19703, 45.32111, 52.16781, 26.67150, -0.33639, 2.30442, 9.72525, 0.00906, 0.08021, 0.03251
433, 10116, 37.19703, 45.32111, 52.16781, 26.62040, -0.39025, 2.29843, 9.73842, 0.00999, 0.07967, 0.03331
434, 10137, 37.19703, 45.32111, 52.16781, 26.67150, -0.40342, 2.31519, 9.78271, 0.00786, 0.08007, 0.03184
435, 10157, 37.19703, 45.32111, 52.16781, 26.62040, -0.37709, 2.30202, 9.72285, 0.00773, 0.08007, 0.03171
436, 10180, 37.19703, 45.32111, 52.16781, 26.67150, -0.38068, 2.30442, 9.75398, 0.00839, 0.08047, 0.03331
437, 10201, 37.19703, 45.32111, 52.16781, 26.62040, -0.42258, 2.29604, 9.75039, 0.00999, 0.07874, 0.03411
438, 10221, 37.19703, 45.32111, 52.16781, 26.67150, -0.37350, 2.31519, 9.73363, 0.00759, 0.07954, 0.03477
439, 10241, 37.19703, 45.32111, 52.16781, 26.67150, -0.35674, 2.30322, 9.74919, 0.00813, 0.07927, 0.03357
440, 10264, 37.19703, 45.32111, 52.16781, 26.67150, -0.40223, 2.29245, 9.76834, 0.00959, 0.08007, 0.03211
441, 10285, 37.19703, 45.32111, 52.16781, 26.62040, -0.35314, 2.30562, 9.75877, 0.00826, 0.08140, 0.03384
442, 10305, 37.19703, 45.32111, 52.16781, 26.67150, -0.41180, 2.27928, 9.72644, 0.00893, 0.07941, 0.03251
443, 10325, 37.19703, 45.32111, 52.16781, 26.67150, -0.39983, 2.28048, 9.75996, 0.00959, 0.07861, 0.03357
444, 10346, 37.19703, 45.32111, 52.16781, 26.67150, -0.38906, 2.30681, 9.71567, 0.00959, 0.07847, 0.03291
445, 10369, 37.19703, 45.32111, 52.16781, 26.67150, -0.39265, 2.30202, 9.75398, 0.00879, 0.08087, 0.03451
446, 10389, 37.19703, 45.32111, 52.16781, 26.67150, -0.38786, 2.28287, 9.70370, 0.00973, 0.07954, 0.03264
447, 10418, 37.19703, 45.32111, 52.16781, 26.67150, -0.37709, 2.30083, 9.76116, 0.00999, 0.08167, 0.03291
448, 10438, 37.19703, 45.32111, 52.16781, 26.67150, -0.36512, 2.30921, 9.73243, 0.00946, 0.08060, 0.03357
449, 10459, 37.19703, 45.32111, 52.16781, 26.67150, -0.36512, 2.28167, 9.77074, 0.00839, 0.08034, 0.03277
450, 10482, 37.19703, 45.32111, 52.16781, 26.67150, -0.38786, 2.30322, 9.72166, 0.00826, 0.07994, 0.03331
451, 10502, 37.19703, 45.32111, 52.16781, 26.67150, -0.34836, 2.29125, 9.74440, 0.00853, 0.08087, 0.03251
452, 10522, 37.19703, 45.32111, 52.16781, 26.67150, -0.39983, 2.33315, 9.70969, 0.00893, 0.07981, 0.03251
453, 10543, 37.19703, 45.32111, 52.16781, 26.67150, -0.38666, 2.31160, 9.76355, 0.00893, 0.07981, 0.03344
454, 10563, 37.19703, 45.32111, 52.16781, 26.62040, -0.35314, 2.30442, 9.75039, 0.00746, 0.07954, 0.03477
455, 10586, 37.19703, 45.32111, 52.16781, 26.67150, -0.39624, 2.27689, 9.75158, 0.00973, 0.07901, 0.03211
456, 10606, 37.19703, 45.32111, 52.16781, 26.62040, -0.39863, 2.34033, 9.73123, 0.00973, 0.07741, 0.03504
457, 10626, 37.19703, 45.32111, 52.16781, 26.67150, -0.38906, 2.30801, 9.76236, 0.00719, 0.07887, 0.03277
458, 10647, 37.19703, 45.32111, 52.16781, 26.67150, -0.39385, 2.32238, 9.71687, 0.00679, 0.07981, 0.03384
459, 10667, 37.19703, 45.32111, 52.16781, 26.67150, -0.36871, 2.35470, 9.72285, 0.00946, 0.07981, 0.03397
460, 10699, 37.19703, 45.32111, 52.16781, 26.67150, -0.38786, 2.30921, 9.75158, 0.01053, 0.07901, 0.03291
461, 10721, 37.19703, 45.32111, 52.16781, 26.62040, -0.42856, 2.26013, 9.70729, 0.00826, 0.07807, 0.03371
462, 10742, 37.19703, 45.32111, 52.16781, 26.67150, -0.37230, 2.26013, 9.73363, 0.00839, 0.07927, 0.03304
463, 10763, 37.19703, 45.32111, 52.16781, 26.67150, -0.37350, 2.29843, 9.74081, 0.00813, 0.07887, 0.03171
464, 10787, 37.19703, 45.32111, 52.16781, 26.67150, -0.39025, 2.33076, 9.72405, 0.00813, 0.07874, 0.03411
465, 10808, 37.19703, 45.32111, 52.16781, 26.67150, -0.34237, 2.30322, 9.73363, 0.00839, 0.07834, 0.03331
466, 10829, 37.19703, 45.32111, 52.16781, 26.67150, -0.36392, 2.31400, 9.80186, 0.01013, 0.07821, 0.03211
467, 10851, 37.19703, 45.32111, 52.16781, 26.67150, -0.36631, 2.30921, 9.77313, 0.01106, 0.08100, 0.03437
468, 10872, 37.19703, 45.32111, 52.16781, 26.67150, -0.38906, 2.29484, 9.72525, 0.00853, 0.08021, 0.03357
469, 10896, 37.19703, 45.32111, 52.16781, 26.67150, -0.39025, 2.32238, 9.77193, 0.00853, 0.07941, 0.03317
470, 10918, 37.19703, 45.32111, 52.16781, 26.67150, -0.36631, 2.27689, 9.75278, 0.00959, 0.07901, 0.03331
471, 10939, 37.19703, 45.32111, 52.16781, 26.67150, -0.37230, 2.31878, 9.78271, 0.00879, 0.07994, 0.03304
472, 10960, 37.19703, 45.32111, 52.16781, 26.67150, -0.38307, 2.29963, 9.75637, 0.00839, 0.08114, 0.03411
473, 10981, 37.19703, 45.32111, 52.16781, 26.67150, -0.39265, 2.29245, 9.71687, 0.00839, 0.08100, 0.03277
474, 11006, 37.19703, 45.32111, 52.16781, 26.67150, -0.36631, 2.28167, 9.75398, 0.00746, 0.07887, 0.03291
475, 11027, 37.19703, 45.32111, 52.16781, 26.67150, -0.38427, 2.30083, 9.75278, 0.00946, 0.08140, 0.03224
476, 11048, 37.19703, 45.32111, 52.16781, 26.67150, -0.37709, 2.32597, 9.73004, 0.01053, 0.07861, 0.03384
477, 11069, 37.19703, 45.32111, 52.16781, 26.67150, -0.38068, 2.33674, 9.70969, 0.00879, 0.07981, 0.03277
478, 11090, 37.19703, 45.32111, 52.16781, 26.67150, -0.39385, 2.31519, 9.73004, 0.00933, 0.08034, 0.03331
479, 11115, 37.19703, 45.32111, 52.16781, 26.67150, -0.38427, 2.28287, 9.79827, 0.00959, 0.07981, 0.03531
480, 11136, 37.19703, 45.32111, 52.16781, 26.67150, -0.37469, 2.26731, 9.73961, 0.00946, 0.08047, 0.03411
481, 11157, 37.19703, 45.32111, 52.16781, 26.67150, -0.38906, 2.29724, 9.77313, 0.01026, 0.08074, 0.03264
482, 11178, 37.19703, 45.32111, 52.16781, 26.67150, -0.41539, 2.30921, 9.72644, 0.00933, 0.07861, 0.03277
483, 11200, 37.19703, 45.32111, 52.16781, 26.67150, -0.39025, 2.34033, 9.73123, 0.00919, 0.07981, 0.03291
484, 11224, 37.19703, 45.32111, 52.16781, 26.67150, -0.38068, 2.31519, 9.74560, 0.00813, 0.07741, 0.03451
485, 11245, 37.19703, 45.32111, 52.16781, 26.67150, -0.35674, 2.31878, 9.73363, 0.00906, 0.08007, 0.03464
486, 11266, 37.19703, 45.32111, 52.16781, 26.67150, -0.34836, 2.30202, 9.72884, 0.00853, 0.08021, 0.03291
487, 11288, 37.19703, 45.32111, 52.16781, 26.67150, -0.37350, 2.30562, 9.79228, 0.00746, 0.07901, 0.03397
488, 11312, 37.19703, 45.32111, 52.16781, 26.67150, -0.39385, 2.31998, 9.73842, 0.00786, 0.07901, 0.03224
489, 11333, 37.19703, 45.32111, 52.16781, 26.67150, -0.38188, 2.29125, 9.73123, 0.00826, 0.08154, 0.03277
490, 11354, 37.19703, 45.32111, 52.16781, 26.67150, -0.38188, 2.29365, 9.73722, 0.00999, 0.07941, 0.03437
491, 11376, 37.19703, 45.32111, 52.16781, 26.67150, -0.36751, 2.28766, 9.74440, 0.00679, 0.07941, 0.03264
492, 11397, 37.19703, 45.32111, 52.16781, 26.67150, -0.36512, 2.27808, 9.74919, 0.00933, 0.08220, 0.03357
493, 11421, 37.19703, 45.32111, 52.16781, 26.67150, -0.39983, 2.30202, 9.71088, 0.00813, 0.08034, 0.03291
494, 11442, 37.19703, 45.32111, 52.16781, 26.67150, -0.36272, 2.27210, 9.74201, 0.00839, 0.07874, 0.03437
495, 11463, 37.19703, 45.32111, 52.16781, 26.67150, -0.39265, 2.29365, 9.70609, 0.00853, 0.08047, 0.03304
496, 11484, 37.19703, 45.32111, 52.16781, 26.67150, -0.38068, 2.29365, 9.76715, 0.01026, 0.08060, 0.03437
497, 11506, 37.19703, 45.32111, 52.16781, 26.67150, -0.39265, 2.28886, 9.79468, 0.00866, 0.07914, 0.03277
498, 11540, 37.19703, 45.32111, 52.16781, 26.67150, -0.37948, 2.29125, 9.75039, 0.00973, 0.07954, 0.03304
499, 11561, 37.19703, 45.32111, 52.16781, 26.67150, -0.36990, 2.29963, 9.72644, 0.00773, 0.08034, 0.03304
500, 11583, 37.19703, 45.32111, 52.16781, 26.67150, -0.35793, 2.31040, 9.78989, 0.00733, 0.08021, 0.03384
501, 11604, 37.19703, 45.32111, 52.16781, 26.67150, -0.37350, 2.32118, 9.76116, 0.00826, 0.08034, 0.03424
502, 11626, 37.19703, 45.32111, 52.16781, 26.67150, -0.39504, 2.27449, 9.74320, 0.00733, 0.08100, 0.03317
503, 11650, 37.19703, 45.32111, 52.16781, 26.67150, -0.36152, 2.31519, 9.73123, 0.00999, 0.08021, 0.03198
504, 11672, 37.19703, 45.32111, 52.16781, 26.67150, -0.38427, 2.31519, 9.70849, 0.00919, 0.08021, 0.03277
505, 11693, 37.19703, 45.32111, 52.16781, 26.67150, -0.36272, 2.29365, 9.74440, 0.00919, 0.07954, 0.03331
506, 11715, 37.19703, 45.32111, 52.16781, 26.67150, -0.38547, 2.31160, 9.72525, 0.00719, 0.07941, 0.03291
507, 11740, 37.19703, 45.32111, 52.16781, 26.67150, -0.39265, 2.33794, 9.74679, 0.00973, 0.07834, 0.03357
508, 11761, 37.19703, 45.32111, 52.16781, 26.62040, -0.41180, 2.28407, 9.73004, 0.00866, 0.07941, 0.03317
509, 11783, 37.19703, 45.32111, 52.16781, 26.67150, -0.37230, 2.28646, 9.75278, 0.01106, 0.07794, 0.03464
510, 11804, 37.19703, 45.32111, 52.16781, 26.67150, -0.34477, 2.27928, 9.70849, 0.00973, 0.08300, 0.03397
511, 11826, 37.19703, 45.32111, 52.16781, 26.67150, -0.38906, 2.30322, 9.73482, 0.00839, 0.07901, 0.03171
512, 11851, 37.19703, 45.32111, 52.16781, 26.67150, -0.35554, 2.33435, 9.72405, 0.00919, 0.08034, 0.03384
513, 11872, 37.19703, 45.32111, 52.16781, 26.67150, -0.40701, 2.32836, 9.74919, 0.00746, 0.08180, 0.03211
514, 11893, 37.19703, 45.32111, 52.16781, 26.67150, -0.39863, 2.31160, 9.78391, 0.00613, 0.07967, 0.03224
515, 11915, 37.19703, 45.32111, 52.16781, 26.67150, -0.40582, 2.33435, 9.76236, 0.00773, 0.08021, 0.03317
516, 11936, 37.19703, 45.32111, 52.16781, 26.67150, -0.40941, 2.25414, 9.78031, 0.00986, 0.07887, 0.03211
517, 11961, 37.19703, 45.32111, 52.16781, 26.67150, -0.36871, 2.29005, 9.71926, 0.01026, 0.07861, 0.03464
518, 11983, 37.19703, 45.32111, 52.16781, 26.67150, -0.36751, 2.31639, 9.70969, 0.00946, 0.07847, 0.03238
519, 12004, 37.19703, 45.32111, 52.16781, 26.67150, -0.34955, 2.28407, 9.73482, 0.01013, 0.07981, 0.03357
520, 12026, 37.19703, 45.32111, 52.16781, 26.67150, -0.35554, 2.26731, 9.75877, 0.00986, 0.08007, 0.03291
521, 12047, 37.19703, 45.32111, 52.16781, 26.67150, -0.38307, 2.28527, 9.76355, 0.00959, 0.07981, 0.03344
522, 12072, 37.19703, 45.32111, 52.16781, 26.67150, -0.36751, 2.29125, 9.69891, 0.00919, 0.07954, 0.03264
523, 12093, 37.19703, 45.32111, 52.16781, 26.67150, -0.36152, 2.31400, 9.74320, 0.00879, 0.07914, 0.03304
524, 12115, 37.19703, 45.32111, 52.16781, 26.67150, -0.38427, 2.30442, 9.74679, 0.00893, 0.07954, 0.03251
525, 12136, 37.19703, 45.32111, 52.16781, 26.67150, -0.41779, 2.33794, 9.74081, 0.00853, 0.07967, 0.03211
526, 12158, 37.19703, 45.32111, 52.16781, 26.67150, -0.39504, 2.32956, 9.75996, 0.00946, 0.07967, 0.03198
527, 12183, 37.19703, 45.32111, 52.16781, 26.67150, -0.39983, 2.28527, 9.71328, 0.00986, 0.07927, 0.03411
528, 12204, 37.19703, 45.32111, 52.16781, 26.67150, -0.39744, 2.31639, 9.75757, 0.00853, 0.07887, 0.03291
529, 12226, 37.19703, 45.32111, 52.16781, 26.62040, -0.39385, 2.27210, 9.77672, 0.00893, 0.07927, 0.03371
530, 12247, 37.19703, 45.32111, 52.16781, 26.67150, -0.37709, 2.29724, 9.72285, 0.00919, 0.07901, 0.03384
531, 12272, 37.19703, 45.32111, 52.16781, 26.67150, -0.39983, 2.29963, 9.74799, 0.00879, 0.07914, 0.03118
532, 12293, 37.19703, 45.32111, 52.16781, 26.67150, -0.35434, 2.31759, 9.74320, 0.00853, 0.07994, 0.03277
533, 12315, 37.19703, 45.32111, 52.16781, 26.67150, -0.37589, 2.27928, 9.80904, 0.00906, 0.08127, 0.03437
534, 12336, 37.19703, 45.32111, 52.16781, 26.67150, -0.37110, 2.33554, 9.72525, 0.00919, 0.08074, 0.03251
535, 12357, 37.19703, 45.32111, 52.16781, 26.67150, -0.37709, 2.28527, 9.77672, 0.00879, 0.07954, 0.03238
536, 12392, 37.19703, 45.32111, 52.16781, 26.67150, -0.36990, 2.28527, 9.75158, 0.00946, 0.08167, 0.03317
537, 12412, 37.19703, 45.32111, 52.16781, 26.67150, -0.39025, 2.29484, 9.75158, 0.00759, 0.07927, 0.03264
538, 12432, 37.19703, 45.32111, 52.16781, 26.67150, -0.38547, 2.28886, 9.73123, 0.00653, 0.08021, 0.03397
539, 12452, 37.19703, 45.32111, 52.16781, 26.67150, -0.37110, 2.29005, 9.68335, 0.00759, 0.07994, 0.03277
540, 12473, 37.19703, 45.32111, 52.16781, 26.67150, -0.38307, 2.28407, 9.71088, 0.01092, 0.08007, 0.03158
541, 12496, 37.19703, 45.32111, 52.16781, 26.67150, -0.33639, 2.29724, 9.80426, 0.00813, 0.08114, 0.03437
542, 12516, 37.19703, 45.32111, 52.16781, 26.67150, -0.41779, 2.26970, 9.73004, 0.00826, 0.08167, 0.03437
543, 12537, 37.19703, 45.32111, 52.16781, 26.67150, -0.31244, 2.26491, 9.68455, 0.00919, 0.08220, 0.03251
544, 12557, 37.19703, 45.32111, 52.16781, 26.67150, -0.36152, 2.30083, 9.74201, 0.00879, 0.08194, 0.03317
545, 12577, 37.19703, 45.32111, 52.16781, 26.67150, -0.42258, 2.30322, 9.77672, 0.00653, 0.07981, 0.03264
546, 12600, 37.19703, 45.32111, 52.16781, 26.67150, -0.43814, 2.30801, 9.77912, 0.00853, 0.07861, 0.03317
547, 12621, 37.19703, 45.32111, 52.16781, 26.62040, -0.42617, 2.28167, 9.75877, 0.00973, 0.07834, 0.03251
548, 12641, 37.19703, 45.32111, 52.16781, 26.62040, -0.39624, 2.32238, 9.75637, 0.00986, 0.07647, 0.03411
549, 12661, 37.19703, 45.32111, 52.16781, 26.67150, -0.32322, 2.29365, 9.77912, 0.00919, 0.07914, 0.03397
550, 12682, 37.19703, 45.32111, 52.16781, 26.67150, -0.31364, 2.31400, 9.74919, 0.00946, 0.07967, 0.03331
551, 12705, 37.19703, 45.27001, 52.16781, 26.67150, -0.34596, 2.30562, 9.73842, 0.00866, 0.08327, 0.03371
552, 12725, 37.19703, 45.32111, 52.16781, 26.67150, -0.37469, 2.28646, 9.69412, 0.00826, 0.08034, 0.03371
553, 12746, 37.19703, 45.32111, 52.16781, 26.67150, -0.43215, 2.31878, 9.73482, 0.00786, 0.08074, 0.03344
554, 12766, 37.19703, 45.32111, 52.16781, 26.67150, -0.42617, 2.30202, 9.76475, 0.00839, 0.07967, 0.03144
555, 12789, 37.19703, 45.32111, 52.16781, 26.67150, -0.38547, 2.29005, 9.78391, 0.00826, 0.07927, 0.03291
556, 12810, 37.19703, 45.32111, 52.16781, 26.62040, -0.34237, 2.31280, 9.83059, 0.00879, 0.07901, 0.03357
557, 12830, 37.19703, 45.32111, 52.16781, 26.67150, -0.34237, 2.33554, 9.71328, 0.00999, 0.07954, 0.03251
558, 12850, 37.19703, 45.32111, 52.16781, 26.67150, -0.37948, 2.27329, 9.69293, 0.01026, 0.07914, 0.03357
559, 12871, 37.19703, 45.32111, 52.16781, 26.67150, -0.39145, 2.30442, 9.74679, 0.00933, 0.07981, 0.03264
560, 12902, 37.19703, 45.32111, 52.16781, 26.67150, -0.43694, 2.27808, 9.68574, 0.00733, 0.07941, 0.03238
561, 12923, 37.19703, 45.32111, 52.16781, 26.67150, -0.40701, 2.31400, 9.77313, 0.00813, 0.07847, 0.03291
562, 12943, 37.19703, 45.32111, 52.16781, 26.67150, -0.37350, 2.29365, 9.77433, 0.00866, 0.08167, 0.03317
563, 12963, 37.19703, 45.32111, 52.16781, 26.67150, -0.39265, 2.29365, 9.71926, 0.00893, 0.08047, 0.03277
564, 12983, 37.19703, 45.32111, 52.16781, 26.67150, -0.35434, 2.31280, 9.73004, 0.00906, 0.08180, 0.03317
565, 13007, 37.19703, 45.32111, 52.16781, 26.67150, -0.39983, 2.31759, 9.70849, 0.01039, 0.08060, 0.03158
566, 13027, 37.19703, 45.32111, 52.16781, 26.67150, -0.36990, 2.27928, 9.75637, 0.00893, 0.07954, 0.03184
567, 13047, 37.19703, 45.32111, 52.16781, 26.67150, -0.44652, 2.29604, 9.72644, 0.00679, 0.07821, 0.03464
568, 13067, 37.19703, 45.32111, 52.16781, 26.67150, -0.38307, 2.30322, 9.72644, 0.00893, 0.07847, 0.03357
569, 13088, 37.19703, 45.32111, 52.16781, 26.67150, -0.38068, 2.27329, 9.72405, 0.00813, 0.07994, 0.03357
570, 13111, 37.19703, 45.32111, 52.16781, 26.62040, -0.35075, 2.31519, 9.77193, 0.01026, 0.08074, 0.03277
571, 13131, 37.19703, 45.32111, 52.16781, 26.62040, -0.37709, 2.30801, 9.73243, 0.00906, 0.07767, 0.03211
572, 13151, 37.19703, 45.32111, 52.16781, 26.67150, -0.38307, 2.32357, 9.78271, 0.00973, 0.07967, 0.03291
573, 13172, 37.19703, 45.32111, 52.16781, 26.67150, -0.40223, 2.32238, 9.76715, 0.00933, 0.08047, 0.03344
574, 13204, 37.19703, 45.32111, 52.16781, 26.67150, -0.38427, 2.30442, 9.78151, 0.00946, 0.07807, 0.03397
575, 13225, 37.19703, 45.32111, 52.16781, 26.67150, -0.36631, 2.28048, 9.75757, 0.00839, 0.08007, 0.03251
576, 13246, 37.19703, 45.32111, 52.16781, 26.67150, -0.38427, 2.29484, 9.72285, 0.00879, 0.07927, 0.03371
577, 13268, 37.19703, 45.32111, 52.16781, 26.67150, -0.37350, 2.29245, 9.78031, 0.00879, 0.07847, 0.03211
578, 13289, 37.19703, 45.32111, 52.16781, 26.67150, -0.35195, 2.33076, 9.73363, 0.00906, 0.07847, 0.03251
579, 13313, 37.19703, 45.32111, 52.16781, 26.67150, -0.38188, 2.31280, 9.75039, 0.00879, 0.07767, 0.03264
580, 13334, 37.19703, 45.32111, 52.16781, 26.67150, -0.41420, 2.30202, 9.75158, 0.00866, 0.07767, 0.03411
581, 13355, 37.19703, 45.32111, 52.16781, 26.67150, -0.39145, 2.26851, 9.75517, 0.00759, 0.07741, 0.03291
582, 13377, 37.19703, 45.32111, 52.16781, 26.62040, -0.36631, 2.31519, 9.73482, 0.00853, 0.07874, 0.03317
583, 13398, 37.19703, 45.32111, 52.16781, 26.67150, -0.36990, 2.31998, 9.75278, 0.00799, 0.07901, 0.03384
584, 13422, 37.19703, 45.32111, 52.16781, 26.67150, -0.38666, 2.29005, 9.75996, 0.00839, 0.07901, 0.03424
585, 13444, 37.19703, 45.32111, 52.16781, 26.62040, -0.40941, 2.27329, 9.71447, 0.00959, 0.08007, 0.03491
586, 13465, 37.19703, 45.32111, 52.16781, 26.67150, -0.40342, 2.30562, 9.79109, 0.00879, 0.08060, 0.03198
587, 13486, 37.19703, 45.32111, 52.16781, 26.67150, -0.37350, 2.28407, 9.76595, 0.00933, 0.07861, 0.03384
588, 13507, 37.19703, 45.32111, 52.16781, 26.67150, -0.35913, 2.28167, 9.77672, 0.00799, 0.07981, 0.03238
589, 13532, 37.19703, 45.32111, 52.16781, 26.67150, -0.38666, 2.28287, 9.77672, 0.00959, 0.07981, 0.03277
590, 13553, 37.19703, 45.32111, 52.16781, 26.67150, -0.39145, 2.30083, 9.72166, 0.00879, 0.08007, 0.03304
591, 13574, 37.19703, 45.32111, 52.16781, 26.67150, -0.40342, 2.29005, 9.65222, 0.00893, 0.07994, 0.03251
592, 13595, 37.19703, 45.32111, 52.16781, 26.67150, -0.40103, 2.29843, 9.73722, 0.00893, 0.07927, 0.03437
593, 13616, 37.19703, 45.32111, 52.16781, 26.62040, -0.39624, 2.30801, 9.79348, 0.00866, 0.07927, 0.03344
594, 13641, 37.19703, 45.32111, 52.16781, 26.67150, -0.35314, 2.32597, 9.75877, 0.00933, 0.07954, 0.03304
595, 13662, 37.19703, 45.32111, 52.16781, 26.67150, -0.39624, 2.26132, 9.70490, 0.00919, 0.07914, 0.03464
596, 13683, 37.19703, 45.32111, 52.16781, 26.67150, -0.38547, 2.26970, 9.75278, 0.00826, 0.07994, 0.03277
597, 13704, 37.19703, 45.32111, 52.16781, 26.67150, -0.34117, 2.31519, 9.76834, 0.00893, 0.07967, 0.03317
598, 13729, 37.19703, 45.32111, 52.16781, 26.62040, -0.38547, 2.27210, 9.74919, 0.00906, 0.07954, 0.03384
599, 13750, 37.19703, 45.32111, 52.16781, 26.67150, -0.36272, 2.28527, 9.75757, 0.00999, 0.07981, 0.03291
600, 13771, 37.19703, 45.32111, 52.16781, 26.67150, -0.37589, 2.26611, 9.74081, 0.00786, 0.07994, 0.03437
601, 13793, 37.19703, 45.32111, 52.16781, 26.67150, -0.39265, 2.30921, 9.76355, 0.00813, 0.07741, 0.03331
602, 13814, 37.19703, 45.32111, 52.16781, 26.67150, -0.36392, 2.30202, 9.74201, 0.00879, 0.08007, 0.03384
603, 13838, 37.19703, 45.32111, 52.16781, 26.67150, -0.37709, 2.26132, 9.72166, 0.00786, 0.08034, 0.03397
604, 13859, 37.19703, 45.32111, 52.16781, 26.67150, -0.42138, 2.32716, 9.70490, 0.01053, 0.07954, 0.03264
605, 13881, 37.19703, 45.32111, 52.16781, 26.67150, -0.39025, 2.29604, 9.76595, 0.00786, 0.07981, 0.03344
606, 13902, 37.19703, 45.32111, 52.16781, 26.67150, -0.37828, 2.27928, 9.76475, 0.00959, 0.08127, 0.03251
607, 13923, 37.19703, 45.32111, 52.16781, 26.67150, -0.41300, 2.26731, 9.75158, 0.00853, 0.08060, 0.03344
608, 13947, 37.19703, 45.32111, 52.16781, 26.67150, -0.40701, 2.32238, 9.75398, 0.00813, 0.07834, 0.03331
609, 13968, 37.19703, 45.32111, 52.16781, 26.67150, -0.38666, 2.28287, 9.73722, 0.00946, 0.07941, 0.03291
610, 13990, 37.19703, 45.32111, 52.16781, 26.67150, -0.39624, 2.29245, 9.72166, 0.00973, 0.07994, 0.03411
611, 14011, 37.19703, 45.32111, 52.16781, 26.62040, -0.40821, 2.27928, 9.73004, 0.01159, 0.07861, 0.03597
612, 14032, 37.19703, 45.32111, 52.16781, 26.67150, -0.35793, 2.28287, 9.72405, 0.00866, 0.07941, 0.03424
613, 14066, 37.19703, 45.32111, 52.16781, 26.67150, -0.40103, 2.31280, 9.78869, 0.00826, 0.07981, 0.03264
614, 14088, 37.19703, 45.32111, 52.16781, 26.67150, -0.40582, 2.30921, 9.73482, 0.01013, 0.07914, 0.03517
615, 14109, 37.19703, 45.32111, 52.16781, 26.67150, -0.40582, 2.31639, 9.77074, 0.01013, 0.08114, 0.03357
616, 14130, 37.19703, 45.32111, 52.16781, 26.67150, -0.37469, 2.31639, 9.73482, 0.00893, 0.08060, 0.03371
617, 14152, 37.19703, 45.32111, 52.16781, 26.67150, -0.40821, 2.31519, 9.81264, 0.00893, 0.07981, 0.03411
618, 14177, 37.19703, 45.32111, 52.16781, 26.67150, -0.36512, 2.29843, 9.73722, 0.00839, 0.07901, 0.03277
619, 14198, 37.19703, 45.32111, 52.16781, 26.67150, -0.39385, 2.31639, 9.78869, 0.00906, 0.08100, 0.03304
620, 14219, 37.19703, 45.32111, 52.16781, 26.67150, -0.37828, 2.29963, 9.73482, 0.00906, 0.08021, 0.03317
621, 14241, 37.19703, 45.32111, 52.16781, 26.67150, -0.41061, 2.28287, 9.72644, 0.00799, 0.08060, 0.03397
622, 14266, 37.19703, 45.32111, 52.16781, 26.67150, -0.41061, 2.31998, 9.76475, 0.00839, 0.07754, 0.03304
623, 14287, 37.19703, 45.32111, 52.16781, 26.67150, -0.37589, 2.30442, 9.68694, 0.00759, 0.07927, 0.03277
624, 14309, 37.19703, 45.32111, 52.16781, 26.67150, -0.36751, 2.28287, 9.70011, 0.00853, 0.08140, 0.03357
625, 14330, 37.19703, 45.32111, 52.16781, 26.67150, -0.39624, 2.29604, 9.78271, 0.00853, 0.08114, 0.03211
626, 14352, 37.19703, 45.32111, 52.16781, 26.67150, -0.41420, 2.31040, 9.75158, 0.00826, 0.08154, 0.03291
627, 14377, 37.19703, 45.32111, 52.16781, 26.67150, -0.39624, 2.32477, 9.74560, 0.00666, 0.08074, 0.03304
628, 14398, 37.19703, 45.32111, 52.16781, 26.67150, -0.37469, 2.29963, 9.72884, 0.00933, 0.08060, 0.03238
629, 14420, 37.19703, 45.32111, 52.16781, 26.67150, -0.37230, 2.30562, 9.79228, 0.00946, 0.08140, 0.03317
630, 14441, 37.19703, 45.32111, 52.16781, 26.67150, -0.39265, 2.28646, 9.78391, 0.00919, 0.08100, 0.03357
631, 14462, 37.19703, 45.32111, 52.16781, 26.67150, -0.39624, 2.27928, 9.73722, 0.01079, 0.08021, 0.03251
632, 14487, 37.19703, 45.32111, 52.16781, 26.67150, -0.34836, 2.32836, 9.70849, 0.00826, 0.07967, 0.03158
633, 14509, 37.19703, 45.32111, 52.16781, 26.67150, -0.37469, 2.30681, 9.75637, 0.00999, 0.07981, 0.03317
634, 14530, 37.19703, 45.32111, 52.16781, 26.67150, -0.39744, 2.31400, 9.74560, 0.00866, 0.07967, 0.03251
635, 14552, 37.19703, 45.32111, 52.16781, 26.67150, -0.38068, 2.26970, 9.77672, 0.00933, 0.07794, 0.03411
636, 14573, 37.19703, 45.32111, 52.16781, 26.67150, -0.41061, 2.25294, 9.71328, 0.00919, 0.07807, 0.03238
637, 14598, 37.19703, 45.32111, 52.16781, 26.67150, -0.40223, 2.32118, 9.74201, 0.00706, 0.08074, 0.03344
638, 14620, 37.19703, 45.32111, 52.16781, 26.67150, -0.38906, 2.32597, 9.72046, 0.00866, 0.08007, 0.03384
639, 14641, 37.19703, 45.32111, 52.16781, 26.67150, -0.38188, 2.30921, 9.78151, 0.00933, 0.07887, 0.03224
640, 14663, 37.19703, 45.32111, 52.16781, 26.67150, -0.41779, 2.28886, 9.78031, 0.00826, 0.07874, 0.03357
641, 14688, 37.19703, 45.32111, 52.16781, 26.67150, -0.39744, 2.30442, 9.81144, 0.01039, 0.07967, 0.03437
642, 14709, 37.19703, 45.32111, 52.16781, 26.67150, -0.36631, 2.29963, 9.75278, 0.00813, 0.07887, 0.03384
643, 14730, 37.19703, 45.32111, 52.16781, 26.67150, -0.39624, 2.31040, 9.71328, 0.00813, 0.07901, 0.03224
644, 14752, 37.19703, 45.32111, 52.16781, 26.67150, -0.37110, 2.27928, 9.77792, 0.00933, 0.07994, 0.03371
645, 14773, 37.19703, 45.32111, 52.16781, 26.67150, -0.38547, 2.31998, 9.77193, 0.00893, 0.07821, 0.03371
646, 14798, 37.19703, 45.32111, 52.16781, 26.67150, -0.39624, 2.33435, 9.76954, 0.00733, 0.07927, 0.03198
647, 14820, 37.19703, 45.32111, 52.16781, 26.67150, -0.38307, 2.29125, 9.81144, 0.00906, 0.07714, 0.03344
648, 14841, 37.19703, 45.32111, 52.16781, 26.67150, -0.37709, 2.30083, 9.74560, 0.00999, 0.07767, 0.03437
649, 14862, 37.19703, 45.32111, 52.16781, 26.67150, -0.33878, 2.30083, 9.71806, 0.00919, 0.07914, 0.03424
650, 14884, 37.19703, 45.32111, 52.16781, 26.67150, -0.36392, 2.35350, 9.70490, 0.00933, 0.07981, 0.03477
651, 14919, 37.19703, 45.32111, 52.16781, 26.67150, -0.38307, 2.30681, 9.72525, 0.00933, 0.08180, 0.03251
652, 14938, 37.19703, 45.32111, 52.16781, 26.67150, -0.38786, 2.31280, 9.74081, 0.00919, 0.08007, 0.03264
653, 14958, 37.19703, 45.32111, 52.16781, 26.67150, -0.33639, 2.30562, 9.72405, 0.00879, 0.07967, 0.03304
654, 14979, 37.19703, 45.32111, 52.16781, 26.67150, -0.42737, 2.28407, 9.69652, 0.00919, 0.07981, 0.03371
655, 14999, 37.19703, 45.32111, 52.16781, 26.67150, -0.41180, 2.28527, 9.75278, 0.00679, 0.07941, 0.03344
656, 15022, 37.19703, 45.32111, 52.16781, 26.67150, -0.36272, 2.31040, 9.74679, 0.01079, 0.08007, 0.03238
657, 15042, 37.19703, 45.32111, 52.16781, 26.62040, -0.36631, 2.28407, 9.75517, 0.00813, 0.07861, 0.03451
658, 15063, 37.19703, 45.32111, 52.16781, 26.67150, -0.37709, 2.27210, 9.77313, 0.00853, 0.08007, 0.03158
659, 15083, 37.19703, 45.32111, 52.16781, 26.67150, -0.36751, 2.30681, 9.71806, 0.00999, 0.08047, 0.03397
660, 15103, 37.19703, 45.32111, 52.16781, 26.67150, -0.41061, 2.28407, 9.77672, 0.00986, 0.07941, 0.03357
661, 15127, 37.19703, 45.32111, 52.16781, 26.67150, -0.38666, 2.30801, 9.74560, 0.00986, 0.07901, 0.03437
662, 15147, 37.19703, 45.32111, 52.16781, 26.67150, -0.39624, 2.29843, 9.77193, 0.00853, 0.07807, 0.03331
663, 15167, 37.19703, 45.32111, 52.16781, 26.67150, -0.35075, 2.29365, 9.75278, 0.00919, 0.08021, 0.03291
664, 15188, 37.19703, 45.32111, 52.16781, 26.67150, -0.37230, 2.29365, 9.75877, 0.00906, 0.08114, 0.03224
665, 15211, 37.19703, 45.32111, 52.16781, 26.67150, -0.38427, 2.29843, 9.77912, 0.00879, 0.07847, 0.03304
666, 15231, 37.19703, 45.32111, 52.16781, 26.67150, -0.40342, 2.31400, 9.75039, 0.00866, 0.08074, 0.03291
667, 15252, 37.19703, 45.32111, 52.16781, 26.67150, -0.38427, 2.31040, 9.75757, 0.00706, 0.08034, 0.03397
668, 15272, 37.19703, 45.32111, 52.16781, 26.67150, -0.37230, 2.31639, 9.71088, 0.00799, 0.07941, 0.03317
669, 15292, 37.19703, 45.32111, 52.16781, 26.67150, -0.38188, 2.29724, 9.73842, 0.00733, 0.07954, 0.03211
670, 15316, 37.19703, 45.32111, 52.16781, 26.67150, -0.39504, 2.30322, 9.73602, 0.00746, 0.08100, 0.03464
671, 15336, 37.19703, 45.32111, 52.16781, 26.67150, -0.36871, 2.33794, 9.77433, 0.00866, 0.07967, 0.03357
672, 15356, 37.19703, 45.32111, 52.16781, 26.67150, -0.35674, 2.28287, 9.76355, 0.00999, 0.08087, 0.03597
673, 15377, 37.19703, 45.32111, 52.16781, 26.67150, -0.37948, 2.29245, 9.84855, 0.00973, 0.07914, 0.03371
674, 15405, 37.19703, 45.32111, 52.16781, 26.67150, -0.35434, 2.27569, 9.75517, 0.00933, 0.07887, 0.03424
675, 15429, 37.19703, 45.32111, 52.16781, 26.67150, -0.38427, 2.27689, 9.71806, 0.01013, 0.07727, 0.03371
676, 15449, 37.19703, 45.32111, 52.16781, 26.67150, -0.38427, 2.33195, 9.72405, 0.00946, 0.07781, 0.03357
677, 15469, 37.19703, 45.32111, 52.16781, 26.67150, -0.36512, 2.29843, 9.72285, 0.01013, 0.08007, 0.03224
678, 15489, 37.19703, 45.32111, 52.16781, 26.62040, -0.43455, 2.31998, 9.73842, 0.00879, 0.07807, 0.03384
679, 15510, 37.19703, 45.32111, 52.16781, 26.67150, -0.40103, 2.30921, 9.76715, 0.00786, 0.07887, 0.03371
680, 15533, 37.19703, 45.32111, 52.16781, 26.67150, -0.36631, 2.31040, 9.76355, 0.00879, 0.07967, 0.03424
681, 15553, 37.19703, 45.32111, 52.16781, 26.67150, -0.41899, 2.31040, 9.73961, 0.00866, 0.07941, 0.03331
682, 15574, 37.19703, 45.32111, 52.16781, 26.67150, -0.38786, 2.33674, 9.77792, 0.01039, 0.07887, 0.03331
683, 15594, 37.19703, 45.32111, 52.16781, 26.67150, -0.40821, 2.34751, 9.73722, 0.00693, 0.07941, 0.03291
684, 15614, 37.19703, 45.32111, 52.16781, 26.67150, -0.39145, 2.30921, 9.74440, 0.00799, 0.07927, 0.03158
685, 15637, 37.19703, 45.32111, 52.16781, 26.67150, -0.39145, 2.33554, 9.72884, 0.00879, 0.08127, 0.03357
686, 15658, 37.19703, 45.32111, 52.16781, 26.67150, -0.40223, 2.30801, 9.73842, 0.00799, 0.07914, 0.03384
687, 15678, 37.19703, 45.32111, 52.16781, 26.67150, -0.37350, 2.28766, 9.74919, 0.00826, 0.07887, 0.03238
688, 15698, 37.19703, 45.32111, 52.16781, 26.67150, -0.42737, 2.27569, 9.78510, 0.00946, 0.07847, 0.03357
689, 15731, 37.19703, 45.32111, 52.16781, 26.67150, -0.37709, 2.27569, 9.75757, 0.01119, 0.08194, 0.03397
690, 15752, 37.19703, 45.32111, 52.16781, 26.67150, -0.39145, 2.26970, 9.77074, 0.00839, 0.08087, 0.03357
691, 15773, 37.19703, 45.32111, 52.16781, 26.67150, -0.37469, 2.29005, 9.66898, 0.00933, 0.07994, 0.03118
692, 15794, 37.19703, 45.32111, 52.16781, 26.67150, -0.40582, 2.29843, 9.76715, 0.00893, 0.08047, 0.03331
693, 15815, 37.19703, 45.32111, 52.16781, 26.67150, -0.37948, 2.30562, 9.75039, 0.00986, 0.07767, 0.03264
694, 15839, 37.19703, 45.32111, 52.16781, 26.67150, -0.42377, 2.30681, 9.71926, 0.00853, 0.07861, 0.03424
695, 15861, 37.19703, 45.32111, 52.16781, 26.67150, -0.40342, 2.32477, 9.84017, 0.01119, 0.07834, 0.03331
696, 15882, 37.19703, 45.32111, 52.16781, 26.67150, -0.33519, 2.26372, 9.73482, 0.00813, 0.08100, 0.03171
697, 15903, 37.19703, 45.32111, 52.16781, 26.67150, -0.36631, 2.20267, 9.77553, 0.00906, 0.08021, 0.03264
698, 15924, 37.19703, 45.32111, 52.16781, 26.67150, -0.39025, 2.19668, 9.71926, 0.00853, 0.07807, 0.03184
699, 15949, 37.19703, 45.32111, 52.16781, 26.67150, -0.44173, 2.21703, 9.76834, 0.00999, 0.07834, 0.03238
700, 15970, 37.19703, 45.32111, 52.16781, 26.67150, -0.38666, 2.25175, 9.77074, 0.01079, 0.08127, 0.03411
701, 15991, 37.19703, 45.32111, 52.16781, 26.67150, -0.33519, 2.27329, 9.77792, 0.01013, 0.08274, 0.03437
702, 16012, 37.19703, 45.32111, 52.16781, 26.67150, -0.39624, 2.33315, 9.72166, 0.00919, 0.08060, 0.03451
703, 16033, 37.19703, 45.32111, 52.16781, 26.67150, -0.40342, 2.40019, 9.67018, 0.00906, 0.08154, 0.03384
704, 16058, 37.19703, 45.32111, 52.16781, 26.67150, -0.36033, 2.44089, 9.72285, 0.00893, 0.08127, 0.03504
705, 16079, 37.19703, 45.32111, 52.16781, 26.67150, -0.35793, 2.43849, 9.69412, 0.00893, 0.07914, 0.03477
706, 16100, 37.19703, 45.32111, 52.16781, 26.67150, -0.34836, 2.43371, 9.69293, 0.00999, 0.07914, 0.03357
707, 16122, 37.19703, 45.32111, 52.16781, 26.67150, -0.38666, 2.32357, 9.73004, 0.00959, 0.08300, 0.03344
708, 16146, 37.19703, 45.32111, 52.16781, 26.67150, -0.39863, 2.33914, 9.72046, 0.00853, 0.08074, 0.03344
709, 16167, 37.19703, 45.32111, 52.16781, 26.67150, -0.39265, 2.33554, 9.78271, 0.00906, 0.08100, 0.03357
710, 16189, 37.19703, 45.32111, 52.16781, 26.67150, -0.37350, 2.34871, 9.76236, 0.00893, 0.08021, 0.03264
711, 16210, 37.19703, 45.32111, 52.16781, 26.67150, -0.39744, 2.30322, 9.75637, 0.01053, 0.07954, 0.03344
712, 16231, 37.19703, 45.32111, 52.16781, 26.67150, -0.37350, 2.29245, 9.71447, 0.00733, 0.07847, 0.03371
713, 16255, 37.19703, 45.32111, 52.16781, 26.67150, -0.38666, 2.29365, 9.73961, 0.00933, 0.08047, 0.03277
714, 16277, 37.19703, 45.32111, 52.16781, 26.67150, -0.38547, 2.23978, 9.79228, 0.00866, 0.08034, 0.03397
715, 16298, 37.19703, 45.32111, 52.16781, 26.62040, -0.34477, 2.25654, 9.71088, 0.00773, 0.07981, 0.03464
716, 16319, 37.19703, 45.32111, 52.16781, 26.67150, -0.34955, 2.23618, 9.73842, 0.00853, 0.08021, 0.03264
717, 16340, 37.19703, 45.32111, 52.16781, 26.67150, -0.41061, 2.26372, 9.72285, 0.00959, 0.08087, 0.03304
718, 16365, 37.19703, 45.32111, 52.16781, 26.67150, -0.40103, 2.26731, 9.78630, 0.00879, 0.07927, 0.03357
719, 16386, 37.19703, 45.32111, 52.16781, 26.67150, -0.40223, 2.28646, 9.74081, 0.00813, 0.07914, 0.03344
720, 16407, 37.19703, 45.27001, 52.16781, 26.67150, -0.41061, 2.31639, 9.74560, 0.00973, 0.08021, 0.03357
721, 16428, 37.19703, 45.32111, 52.16781, 26.67150, -0.37948, 2.29963, 9.76116, 0.00999, 0.08180, 0.03277
722, 16449, 37.19703, 45.32111, 52.16781, 26.67150, -0.36871, 2.34033, 9.73243, 0.00773, 0.07941, 0.03291
723, 16474, 37.19703, 45.32111, 52.16781, 26.67150, -0.36871, 2.35350, 9.78391, 0.00706, 0.08074, 0.03344
724, 16495, 37.19703, 45.32111, 52.16781, 26.67150, -0.35674, 2.30921, 9.76715, 0.00693, 0.07981, 0.03331
725, 16516, 37.19703, 45.32111, 52.16781, 26.67150, -0.40462, 2.30681, 9.73961, 0.01013, 0.07954, 0.03251
726, 16537, 37.19703, 45.32111, 52.16781, 26.67150, -0.40462, 2.29005, 9.70849, 0.00946, 0.07914, 0.03344
727, 16558, 37.19703, 45.32111, 52.16781, 26.67150, -0.40821, 2.29125, 9.76355, 0.00933, 0.07967, 0.03238
728, 16593, 37.19703, 45.32111, 52.16781, 26.67150, -0.35793, 2.27090, 9.72525, 0.00773, 0.08114, 0.03251
729, 16614, 37.19703, 45.32111, 52.16781, 26.67150, -0.38068, 2.28886, 9.78391, 0.00933, 0.08154, 0.03144
730, 16636, 37.19703, 45.32111, 52.16781, 26.67150, -0.38188, 2.28646, 9.79947, 0.00906, 0.08074, 0.03317
731, 16657, 37.19703, 45.32111, 52.16781, 26.67150, -0.35913, 2.28527, 9.73842, 0.00866, 0.07994, 0.03331
732, 16682, 37.19703, 45.32111, 52.16781, 26.67150, -0.37828, 2.29604, 9.77313, 0.01092, 0.07834, 0.03317
733, 16703, 37.19703, 45.32111, 52.16781, 26.67150, -0.39145, 2.30442, 9.74320, 0.00813, 0.07861, 0.03371
734, 16725, 37.19703, 45.32111, 52.16781, 26.67150, -0.40103, 2.31639, 9.74679, 0.00853, 0.08034, 0.03171
735, 16746, 37.19703, 45.32111, 52.16781, 26.67150, -0.40342, 2.33076, 9.79588, 0.00826, 0.08047, 0.03304
736, 16768, 37.19703, 45.32111, 52.16781, 26.67150, -0.38068, 2.34392, 9.75398, 0.00786, 0.08074, 0.03451
737, 16793, 37.19703, 45.32111, 52.16781, 26.67150, -0.37350, 2.27569, 9.75996, 0.00773, 0.07874, 0.03224
738, 16814, 37.19703, 45.32111, 52.16781, 26.67150, -0.38307, 2.26132, 9.76475, 0.00799, 0.07914, 0.03277
739, 16836, 37.19703, 45.32111, 52.16781, 26.67150, -0.36272, 2.27329, 9.73004, 0.00933, 0.07874, 0.03317
740, 16857, 37.19703, 45.32111, 52.16781, 26.67150, -0.37828, 2.29963, 9.78989, 0.00973, 0.08060, 0.03331
741, 16878, 37.19703, 45.32111, 52.16781, 26.67150, -0.39863, 2.29245, 9.76834, 0.00999, 0.08034, 0.03291
742, 16903, 37.19703, 45.32111, 52.16781, 26.67150, -0.38906, 2.25773, 9.76116, 0.01026, 0.07847, 0.03238
743, 16925, 37.19703, 45.32111, 52.16781, 26.67150, -0.36272, 2.29125, 9.75158, 0.00866, 0.07874, 0.03344
744, 16946, 37.19703, 45.32111, 52.16781, 26.67150, -0.35075, 2.30322, 9.72405, 0.00786, 0.08074, 0.03304
745, 16968, 37.19703, 45.32111, 52.16781, 26.67150, -0.36152, 2.31519, 9.67976, 0.00866, 0.07914, 0.03331
746, 16989, 37.19703, 45.32111, 52.16781, 26.67150, -0.39265, 2.30921, 9.77313, 0.00813, 0.07861, 0.03198
747, 17014, 37.19703, 45.32111, 52.16781, 26.67150, -0.35674, 2.29724, 9.72644, 0.00853, 0.07941, 0.03198
748, 17036, 37.19703, 45.32111, 52.16781, 26.67150, -0.39025, 2.34273, 9.79228, 0.00826, 0.08047, 0.03211
749, 17057, 37.19703, 45.32111, 52.16781, 26.67150, -0.42856, 2.31160, 9.72046, 0.00826, 0.08087, 0.03277
750, 17079, 37.19703, 45.32111, 52.16781, 26.67150, -0.41180, 2.31878, 9.71567, 0.01013, 0.07727, 0.03464
751, 17100, 37.19703, 45.32111, 52.16781, 26.67150, -0.38786, 2.29005, 9.74201, 0.00799, 0.07821, 0.03357
752, 17120, 37.19703, 45.32111, 52.16781, 26.67150, -0.37709, 2.28287, 9.76116, 0.00813, 0.07741, 0.03371
753, 17141, 37.19703, 45.32111, 52.16781, 26.67150, -0.35554, 2.30202, 9.75757, 0.00946, 0.07954, 0.03371
754, 17163, 37.19703, 45.32111, 52.16781, 26.67150, -0.36392, 2.32836, 9.70849, 0.00879, 0.07887, 0.03158
755, 17184, 37.19703, 45.32111, 52.16781, 26.67150, -0.39624, 2.33554, 9.72644, 0.01053, 0.07901, 0.03184
756, 17209, 37.19703, 45.32111, 52.16781, 26.67150, -0.36033, 2.30562, 9.75637, 0.00919, 0.07847, 0.03397
757, 17230, 37.19703, 45.32111, 52.16781, 26.67150, -0.36990, 2.29604, 9.76355, 0.00933, 0.07847, 0.03317
758, 17252, 37.19703, 45.32111, 52.16781, 26.67150, -0.39624, 2.32716, 9.69891, 0.00919, 0.08021, 0.03331
759, 17273, 37.19703, 45.32111, 52.16781, 26.67150, -0.38547, 2.29963, 9.75637, 0.01092, 0.07967, 0.03144
760, 17295, 37.19703, 45.32111, 52.16781, 26.67150, -0.37110, 2.30921, 9.78031, 0.00866, 0.07994, 0.03224
761, 17320, 37.19703, 45.32111, 52.16781, 26.67150, -0.38906, 2.28527, 9.75398, 0.00999, 0.07887, 0.03251
762, 17341, 37.19703, 45.32111, 52.16781, 26.67150, -0.41779, 2.30083, 9.70370, 0.00839, 0.07861, 0.03317
763, 17362, 37.14594, 45.32111, 52.16781, 26.67150, -0.38307, 2.26851, 9.71447, 0.00959, 0.08060, 0.03464
764, 17384, 37.19703, 45.32111, 52.16781, 26.67150, -0.38068, 2.31998, 9.70969, 0.01026, 0.07807, 0.03211
765, 17405, 37.19703, 45.32111, 52.16781, 26.67150, -0.40941, 2.26851, 9.72884, 0.00879, 0.07901, 0.03251
766, 17440, 37.19703, 45.32111, 52.16781, 26.67150, -0.40701, 2.30442, 9.81024, 0.00866, 0.07861, 0.03344
767, 17460, 37.19703, 45.32111, 52.16781, 26.67150, -0.39863, 2.29963, 9.84855, 0.00959, 0.07741, 0.03437
768, 17480, 37.19703, 45.32111, 52.16781, 26.67150, -0.40103, 2.31280, 9.75158, 0.00933, 0.07887, 0.03384
769, 17500, 37.19703, 45.32111, 52.16781, 26.67150, -0.34955, 2.31998, 9.67856, 0.00933, 0.07914, 0.03317
770, 17520, 37.19703, 45.32111, 52.16781, 26.67150, -0.36631, 2.32357, 9.70849, 0.00946, 0.07981, 0.03371
771, 17544, 37.19703, 45.32111, 52.16781, 26.67150, -0.37469, 2.31160, 9.75039, 0.00773, 0.07901, 0.03344
772, 17564, 37.19703, 45.32111, 52.16781, 26.67150, -0.41061, 2.33315, 9.74081, 0.00893, 0.08114, 0.03291
773, 17584, 37.19703, 45.32111, 52.16781, 26.67150, -0.42617, 2.30202, 9.75996, 0.00839, 0.07941, 0.03238
774, 17605, 37.19703, 45.32111, 52.16781, 26.67150, -0.42856, 2.31400, 9.74799, 0.00733, 0.07941, 0.03171
775, 17628, 37.19703, 45.32111, 52.16781, 26.67150, -0.38906, 2.30322, 9.75517, 0.00933, 0.07927, 0.03437
776, 17648, 37.19703, 45.32111, 52.16781, 26.67150, -0.35913, 2.28048, 9.72525, 0.00866, 0.07834, 0.03477
777, 17669, 37.19703, 45.32111, 52.16781, 26.67150, -0.36871, 2.26851, 9.73722, 0.00999, 0.07927, 0.03477
778, 17689, 37.19703, 45.32111, 52.16781, 26.67150, -0.38906, 2.28048, 9.69173, 0.00906, 0.08047, 0.03344
779, 17709, 37.19703, 45.32111, 52.16781, 26.67150, -0.35674, 2.31160, 9.84496, 0.00853, 0.08021, 0.03371
780, 17732, 37.19703, 45.32111, 52.16781, 26.67150, -0.39504, 2.29484, 9.79947, 0.00799, 0.07927, 0.03198
781, 17753, 37.19703, 45.32111, 52.16781, 26.67150, -0.39863, 2.28167, 9.70729, 0.00973, 0.08021, 0.03344
782, 17773, 37.19703, 45.32111, 52.16781, 26.67150, -0.38906, 2.32357, 9.74679, 0.00933, 0.07981, 0.03238
783, 17793, 37.19703, 45.32111, 52.16781, 26.67150, -0.33279, 2.29604, 9.73602, 0.00959, 0.08021, 0.03397
784, 17814, 37.19703, 45.32111, 52.16781, 26.67150, -0.32801, 2.29724, 9.74320, 0.00813, 0.08034, 0.03357
785, 17837, 37.19703, 45.32111, 52.16781, 26.67150, -0.40223, 2.32238, 9.75039, 0.00973, 0.07954, 0.03317
786, 17857, 37.19703, 45.32111, 52.16781, 26.67150, -0.42018, 2.27449, 9.77433, 0.01026, 0.07754, 0.03198
787, 17886, 37.19703, 45.32111, 52.16781, 26.67150, -0.38906, 2.32357, 9.70490, 0.00986, 0.08087, 0.03371
788, 17906, 37.19703, 45.32111, 52.16781, 26.67150, -0.38068, 2.28287, 9.70849, 0.00679, 0.08060, 0.03331
789, 17927, 37.19703, 45.32111, 52.16781, 26.67150, -0.32202, 2.32597, 9.71567, 0.00919, 0.08007, 0.03317
790, 17950, 37.19703, 45.32111, 52.16781, 26.67150, -0.40582, 2.28407, 9.79947, 0.00959, 0.07821, 0.03384
791, 17970, 37.19703, 45.32111, 52.16781, 26.67150, -0.38307, 2.29843, 9.75757, 0.00839, 0.07994, 0.03331
792, 17990, 37.19703, 45.27001, 52.11671, 26.67150, -0.42856, 2.28287, 9.65582, 0.00933, 0.07994, 0.03437
793, 18011, 37.19703, 45.32111, 52.16781, 26.67150, -0.36990, 2.30442, 9.70490, 0.00853, 0.07994, 0.03344
794, 18031, 37.19703, 45.27001, 52.16781, 26.67150, -0.37230, 2.30322, 9.68694, 0.00893, 0.07927, 0.03411
795, 18054, 37.19703, 45.32111, 52.16781, 26.67150, -0.41539, 2.29604, 9.72764, 0.00773, 0.07994, 0.03264
796, 18075, 37.19703, 45.32111, 52.16781, 26.67150, -0.39863, 2.24935, 9.77672, 0.00826, 0.08100, 0.03224
797, 18095, 37.19703, 45.32111, 52.16781, 26.67150, -0.37589, 2.29365, 9.71806, 0.00786, 0.07927, 0.03344
798, 18115, 37.19703, 45.32111, 52.16781, 26.67150, -0.33998, 2.28527, 9.77074, 0.00773, 0.08034, 0.03158
799, 18139, 37.19703, 45.32111, 52.16781, 26.67150, -0.39983, 2.28886, 9.79109, 0.00999, 0.07981, 0.03238
800, 18159, 37.19703, 45.32111, 52.16781, 26.67150, -0.36033, 2.31400, 9.75398, 0.01039, 0.08007, 0.03238
801, 18179, 37.19703, 45.32111, 52.16781, 26.67150, -0.39025, 2.29125, 9.71208, 0.00973, 0.07927, 0.03384
802, 18199, 37.19703, 45.32111, 52.16781, 26.67150, -0.37828, 2.30562, 9.77074, 0.00799, 0.08007, 0.03357
803, 18219, 37.19703, 45.32111, 52.16781, 26.67150, -0.38906, 2.31519, 9.71328, 0.00693, 0.08034, 0.03224
804, 18252, 37.19703, 45.32111, 52.16781, 26.67150, -0.44053, 2.30322, 9.76715, 0.00986, 0.07994, 0.03224
805, 18273, 37.19703, 45.32111, 52.16781, 26.67150, -0.36871, 2.31639, 9.78151, 0.01079, 0.07914, 0.03251
806, 18294, 37.19703, 45.32111, 52.16781, 26.67150, -0.39624, 2.29005, 9.74560, 0.00879, 0.07954, 0.03211
807, 18315, 37.19703, 45.32111, 52.16781, 26.67150, -0.37948, 2.28646, 9.73243, 0.00919, 0.08021, 0.03304
808, 18336, 37.19703, 45.32111, 52.16781, 26.67150, -0.41300, 2.27928, 9.70729, 0.00986, 0.07981, 0.03397
809, 18361, 37.19703, 45.32111, 52.16781, 26.67150, -0.39624, 2.30442, 9.73243, 0.00879, 0.07754, 0.03491
810, 18382, 37.19703, 45.32111, 52.16781, 26.67150, -0.34716, 2.31040, 9.76715, 0.00879, 0.07941, 0.03344
811, 18403, 37.19703, 45.32111, 52.16781, 26.67150, -0.36512, 2.27689, 9.76834, 0.00959, 0.07741, 0.03504
812, 18424, 37.19703, 45.32111, 52.16781, 26.67150, -0.40941, 2.29125, 9.74560, 0.00866, 0.07847, 0.03397
813, 18446, 37.19703, 45.32111, 52.16781, 26.67150, -0.36512, 2.27449, 9.73363, 0.00799, 0.07847, 0.03251
814, 18470, 37.19703, 45.32111, 52.16781, 26.67150, -0.38666, 2.31040, 9.72884, 0.00799, 0.07941, 0.03304
815, 18491, 37.19703, 45.32111, 52.16781, 26.67150, -0.34477, 2.29125, 9.76475, 0.00693, 0.07941, 0.03371
816, 18513, 37.19703, 45.32111, 52.16781, 26.67150, -0.38666, 2.32716, 9.78391, 0.00839, 0.07887, 0.03344
817, 18534, 37.19703, 45.32111, 52.16781, 26.67150, -0.39504, 2.30681, 9.76595, 0.01013, 0.07927, 0.03451
818, 18558, 37.19703, 45.32111, 52.16781, 26.67150, -0.42856, 2.31280, 9.73482, 0.01132, 0.07994, 0.03291
819, 18580, 37.19703, 45.32111, 52.16781, 26.67150, -0.38427, 2.30202, 9.68335, 0.01013, 0.08007, 0.03344
820, 18601, 37.19703, 45.32111, 52.16781, 26.67150, -0.35674, 2.25534, 9.76475, 0.00986, 0.08047, 0.03331
821, 18622, 37.19703, 45.32111, 52.16781, 26.67150, -0.39504, 2.30801, 9.79707, 0.01092, 0.07901, 0.03264
822, 18643, 37.19703, 45.32111, 52.16781, 26.67150, -0.38307, 2.27808, 9.72405, 0.00933, 0.07861, 0.03331
823, 18668, 37.19703, 45.32111, 52.16781, 26.67150, -0.36751, 2.29604, 9.67018, 0.00866, 0.08247, 0.03277
824, 18689, 37.19703, 45.27001, 52.16781, 26.67150, -0.43215, 2.30442, 9.73842, 0.00733, 0.07887, 0.03277
825, 18710, 37.19703, 45.32111, 52.16781, 26.67150, -0.40462, 2.35709, 9.78510, 0.00893, 0.07927, 0.03531
826, 18731, 37.19703, 45.32111, 52.16781, 26.67150, -0.39025, 2.34632, 9.78271, 0.00959, 0.08167, 0.03411
827, 18752, 37.19703, 45.32111, 52.16781, 26.67150, -0.39145, 2.28527, 9.73243, 0.00679, 0.07608, 0.03357
828, 18777, 37.19703, 45.32111, 52.16781, 26.67150, -0.36152, 2.26252, 9.72405, 0.00640, 0.07794, 0.03251
829, 18798, 37.19703, 45.32111, 52.16781, 26.67150, -0.34716, 2.32477, 9.73004, 0.00759, 0.07981, 0.03344
830, 18819, 37.19703, 45.32111, 52.16781, 26.62040, -0.35793, 2.30322, 9.71806, 0.00973, 0.08114, 0.03397
831, 18841, 37.19703, 45.32111, 52.16781, 26.67150, -0.39983, 2.28287, 9.74679, 0.00893, 0.08034, 0.03571
832, 18862, 37.19703, 45.32111, 52.16781, 26.67150, -0.40223, 2.31878, 9.79707, 0.00959, 0.07927, 0.03131
833, 18886, 37.19703, 45.32111, 52.16781, 26.67150, -0.44412, 2.32118, 9.84496, 0.00906, 0.07941, 0.03317
834, 18907, 37.19703, 45.32111, 52.16781, 26.67150, -0.41420, 2.25175, 9.74081, 0.00986, 0.07861, 0.03304
835, 18929, 37.19703, 45.32111, 52.16781, 26.67150, -0.36392, 2.25175, 9.69053, 0.01092, 0.07834, 0.03357
836, 18950, 37.19703, 45.32111, 52.16781, 26.67150, -0.33519, 2.29724, 9.67377, 0.01079, 0.07967, 0.03277
837, 18971, 37.19703, 45.32111, 52.16781, 26.67150, -0.36631, 2.32956, 9.73004, 0.00799, 0.08114, 0.03264
838, 18995, 37.19703, 45.32111, 52.16781, 26.67150, -0.36631, 2.28527, 9.75398, 0.00879, 0.08087, 0.03131
839, 19017, 37.19703, 45.32111, 52.16781, 26.67150, -0.35913, 2.33794, 9.74919, 0.00759, 0.08340, 0.03198
840, 19038, 37.19703, 45.32111, 52.16781, 26.62040, -0.41659, 2.31160, 9.74919, 0.00906, 0.08220, 0.03251
841, 19059, 37.19703, 45.32111, 52.16781, 26.67150, -0.43215, 2.31400, 9.76475, 0.00866, 0.07967, 0.03291
842, 19093, 37.19703, 45.32111, 52.16781, 26.67150, -0.39744, 2.28048, 9.80904, 0.01106, 0.07941, 0.03371
843, 19115, 37.19703, 45.32111, 52.16781, 26.67150, -0.39863, 2.23618, 9.76595, 0.00973, 0.07834, 0.03264
844, 19136, 37.19703, 45.32111, 52.16781, 26.67150, -0.34596, 2.19309, 9.72884, 0.01039, 0.07994, 0.03397
845, 19157, 37.19703, 45.32111, 52.16781, 26.67150, -0.35075, 2.26851, 9.72884, 0.00879, 0.07914, 0.03264
846, 19179, 37.19703, 45.32111, 52.16781, 26.67150, -0.36990, 2.30202, 9.73243, 0.00893, 0.08287, 0.03291
847, 19204, 37.19703, 45.32111, 52.16781, 26.67150, -0.40941, 2.31400, 9.75517, 0.00746, 0.08194, 0.03317
848, 19225, 37.19703, 45.32111, 52.16781, 26.67150, -0.38307, 2.30322, 9.70969, 0.00759, 0.07954, 0.03317
849, 19247, 37.19703, 45.32111, 52.16781, 26.67150, -0.40342, 2.37984, 9.72285, 0.00906, 0.07901, 0.03317
850, 19268, 37.19703, 45.32111, 52.16781, 26.67150, -0.41061, 2.35829, 9.78271, 0.00973, 0.07914, 0.03304
851, 19289, 37.19703, 45.32111, 52.16781, 26.67150, -0.40701, 2.31639, 9.73722, 0.00946, 0.08007, 0.03451
852, 19314, 37.19703, 45.32111, 52.16781, 26.67150, -0.39265, 2.27569, 9.78989, 0.00853, 0.07901, 0.03384
853, 19336, 37.19703, 45.32111, 52.16781, 26.67150, -0.42018, 2.27329, 9.81144, 0.00906, 0.07821, 0.03277
854, 19357, 37.19703, 45.32111, 52.16781, 26.67150, -0.38427, 2.21942, 9.68814, 0.00973, 0.07701, 0.03264
855, 19379, 37.19703, 45.32111, 52.16781, 26.67150, -0.33758, 2.21583, 9.69173, 0.00853, 0.07874, 0.03411
856, 19400, 37.19703, 45.32111, 52.16781, 26.67150, -0.35913, 2.30202, 9.69891, 0.00986, 0.07967, 0.03291
857, 19425, 37.19703, 45.32111, 52.16781, 26.67150, -0.36272, 2.31280, 9.69173, 0.00893, 0.08140, 0.03264
858, 19447, 37.19703, 45.32111, 52.16781, 26.67150, -0.43335, 2.32956, 9.79827, 0.00853, 0.07901, 0.03451
859, 19468, 37.19703, 45.32111, 52.16781, 26.67150, -0.34237, 2.36427, 9.70969, 0.00826, 0.07767, 0.03357
860, 19490, 37.19703, 45.32111, 52.16781, 26.67150, -0.37948, 2.32357, 9.76355, 0.00773, 0.07981, 0.03317
861, 19511, 37.19703, 45.32111, 52.16781, 26.67150, -0.39624, 2.30322, 9.75158, 0.00693, 0.07887, 0.03411
862, 19536, 37.19703, 45.32111, 52.16781, 26.67150, -0.37589, 2.30801, 9.79348, 0.00959, 0.07621, 0.03357
863, 19558, 37.19703, 45.32111, 52.16781, 26.67150, -0.30526, 2.25414, 9.81862, 0.00999, 0.07754, 0.03384
864, 19579, 37.19703, 45.32111, 52.16781, 26.67150, -0.34955, 2.26491, 9.75637, 0.01106, 0.07901, 0.03397
865, 19601, 37.19703, 45.32111, 52.16781, 26.67150, -0.38188, 2.28646, 9.73961, 0.00946, 0.07807, 0.03184
866, 19626, 37.19703, 45.32111, 52.16781, 26.67150, -0.36871, 2.27329, 9.77792, 0.00999, 0.07687, 0.03344
867, 19647, 37.19703, 45.32111, 52.16781, 26.67150, -0.42737, 2.27569, 9.72884, 0.01079, 0.07874, 0.03344
868, 19668, 37.19703, 45.32111, 52.16781, 26.67150, -0.38906, 2.31639, 9.72764, 0.00933, 0.07727, 0.03384
869, 19690, 37.19703, 45.32111, 52.16781, 26.67150, -0.36631, 2.31280, 9.76715, 0.00706, 0.07941, 0.03238
870, 19711, 37.19703, 45.32111, 52.16781, 26.67150, -0.40103, 2.34033, 9.73123, 0.00906, 0.08127, 0.03477
871, 19736, 37.19703, 45.32111, 52.16781, 26.67150, -0.38906, 2.30322, 9.73602, 0.00786, 0.07994, 0.03424
872, 19758, 37.19703, 45.32111, 52.16781, 26.67150, -0.36871, 2.32118, 9.78151, 0.00773, 0.08154, 0.03397
873, 19779, 37.19703, 45.32111, 52.16781, 26.67150, -0.37350, 2.26611, 9.76834, 0.00666, 0.08021, 0.03544
874, 19801, 37.19703, 45.32111, 52.16781, 26.67150, -0.40701, 2.32956, 9.78510, 0.00906, 0.08140, 0.03384
875, 19822, 37.19703, 45.32111, 52.16781, 26.67150, -0.38427, 2.30322, 9.75278, 0.00733, 0.08060, 0.03198
876, 19847, 37.19703, 45.32111, 52.16781, 26.67150, -0.35793, 2.30083, 9.81144, 0.01092, 0.08021, 0.03344
877, 19868, 37.19703, 45.32111, 52.16781, 26.67150, -0.34237, 2.27329, 9.78510, 0.00906, 0.07754, 0.03238
878, 19890, 37.19703, 45.32111, 52.16781, 26.67150, -0.36871, 2.25055, 9.74320, 0.00759, 0.08034, 0.03277
879, 19911, 37.19703, 45.32111, 52.16781, 26.67150, -0.38188, 2.22780, 9.73363, 0.00879, 0.08087, 0.03198
880, 19933, 37.19703, 45.32111, 52.16781, 26.67150, -0.40462, 2.26731, 9.74320, 0.00893, 0.08154, 0.03184
881, 19967, 37.19703, 45.32111, 52.16781, 26.67150, -0.38427, 2.28646, 9.71208, 0.01013, 0.07927, 0.03264
882, 19987, 37.19703, 45.32111, 52.16781, 26.67150, -0.41420, 2.29125, 9.70729, 0.00866, 0.07954, 0.03211
883, 20007, 37.19703, 45.32111, 52.16781, 26.67150, -0.36751, 2.33554, 9.75039, 0.00959, 0.08007, 0.03331
884, 20028, 37.19703, 45.32111, 52.16781, 26.67150, -0.40342, 2.30921, 9.76116, 0.00799, 0.08114, 0.03531
885, 20051, 37.19703, 45.32111, 52.16781, 26.67150, -0.37469, 2.33914, 9.72525, 0.00866, 0.08127, 0.03451
886, 20071, 37.19703, 45.32111, 52.16781, 26.62040, -0.35793, 2.26491, 9.71208, 0.00879, 0.07981, 0.03411
887, 20091, 37.19703, 45.32111, 52.16781, 26.67150, -0.35075, 2.30801, 9.71926, 0.00693, 0.08274, 0.03384
888, 20112, 37.19703, 45.32111, 52.16781, 26.67150, -0.39504, 2.33554, 9.73123, 0.00719, 0.08047, 0.03291
889, 20132, 37.19703, 45.32111, 52.16781, 26.67150, -0.39265, 2.32956, 9.67497, 0.00946, 0.08047, 0.03331
890, 20155, 37.19703, 45.32111, 52.16781, 26.62040, -0.38188, 2.28886, 9.75996, 0.00839, 0.07847, 0.03384
891, 20176, 37.19703, 45.32111, 52.16781, 26.67150, -0.39385, 2.32477, 9.72285, 0.00853, 0.07901, 0.03224
892, 20196, 37.19703, 45.32111, 52.16781, 26.67150, -0.37589, 2.33195, 9.69412, 0.00786, 0.08074, 0.03224
893, 20216, 37.19703, 45.32111, 52.16781, 26.67150, -0.40103, 2.29604, 9.76834, 0.00919, 0.08021, 0.03304
894, 20237, 37.19703, 45.32111, 52.16781, 26.67150, -0.35913, 2.29245, 9.71088, 0.00853, 0.08194, 0.03251
895, 20260, 37.19703, 45.32111, 52.16781, 26.67150, -0.39385, 2.28167, 9.74081, 0.00733, 0.07847, 0.03158
896, 20280, 37.19703, 45.32111, 52.16781, 26.67150, -0.38307, 2.32118, 9.74799, 0.00879, 0.07927, 0.03251
897, 20301, 37.19703, 45.32111, 52.16781, 26.67150, -0.39983, 2.28527, 9.74799, 0.00906, 0.08100, 0.03331
898, 20321, 37.19703, 45.32111, 52.16781, 26.67150, -0.37948, 2.32477, 9.77433, 0.00906, 0.08060, 0.03411
899, 20341, 37.19703, 45.32111, 52.16781, 26.67150, -0.37709, 2.29724, 9.66300, 0.00853, 0.08140, 0.03331
900, 20373, 37.19703, 45.32111, 52.16781, 26.67150, -0.42018, 2.31878, 9.73482, 0.00973, 0.07847, 0.03317
901, 20393, 37.19703, 45.32111, 52.16781, 26.67150, -0.40821, 2.32238, 9.76715, 0.00933, 0.08047, 0.03291
902, 20414, 37.19703, 45.32111, 52.16781, 26.67150, -0.41659, 2.31160, 9.76355, 0.00919, 0.07927, 0.03264
903, 20434, 37.19703, 45.32111, 52.16781, 26.67150, -0.37469, 2.25773, 9.75278, 0.00879, 0.07901, 0.03331
904, 20454, 37.19703, 45.32111, 52.16781, 26.67150, -0.39145, 2.29963, 9.73602, 0.00839, 0.07901, 0.03317
905, 20477, 37.19703, 45.32111, 52.16781, 26.67150, -0.36512, 2.30801, 9.73123, 0.00613, 0.07967, 0.03357
906, 20498, 37.19703, 45.32111, 52.16781, 26.62040, -0.36512, 2.28527, 9.72764, 0.00959, 0.08074, 0.03291
907, 20518, 37.19703, 45.32111, 52.16781, 26.67150, -0.36152, 2.26611, 9.77074, 0.01026, 0.07901, 0.03184
908, 20538, 37.19703, 45.32111, 52.16781, 26.67150, -0.34117, 2.30921, 9.77193, 0.00879, 0.07874, 0.03371
909, 20562, 37.19703, 45.32111, 52.16781, 26.67150, -0.41659, 2.29604, 9.76116, 0.00826, 0.07887, 0.03291
910, 20582, 37.19703, 45.32111, 52.16781, 26.67150, -0.41659, 2.28766, 9.81144, 0.01026, 0.07847, 0.03238
911, 20602, 37.19703, 45.32111, 52.16781, 26.67150, -0.41180, 2.32716, 9.80665, 0.00893, 0.08021, 0.03277
912, 20623, 37.19703, 45.32111, 52.16781, 26.67150, -0.38068, 2.28646, 9.75398, 0.00799, 0.07901, 0.03331
913, 20643, 37.19703, 45.32111, 52.16781, 26.62040, -0.33878, 2.31998, 9.70011, 0.00813, 0.08087, 0.03291
914, 20666, 37.19703, 45.32111, 52.16781, 26.67150, -0.39504, 2.32477, 9.75278, 0.00906, 0.08021, 0.03277
915, 20686, 37.19703, 45.32111, 52.16781, 26.67150, -0.37828, 2.29245, 9.72644, 0.00799, 0.08021, 0.03357
916, 20707, 37.19703, 45.32111, 52.16781, 26.67150, -0.37709, 2.30442, 9.73722, 0.00986, 0.08060, 0.03384
917, 20727, 37.19703, 45.32111, 52.16781, 26.67150, -0.34596, 2.27449, 9.74560, 0.00999, 0.08060, 0.03357
918, 20747, 37.19703, 45.32111, 52.16781, 26.67150, -0.37350, 2.30681, 9.73842, 0.00786, 0.07941, 0.03131
919, 20780, 37.19703, 45.32111, 52.16781, 26.67150, -0.39025, 2.30921, 9.78869, 0.00946, 0.07901, 0.03491
920, 20801, 37.19703, 45.32111, 52.16781, 26.67150, -0.38786, 2.30681, 9.75158, 0.00866, 0.08007, 0.03504
921, 20822, 37.19703, 45.32111, 52.16781, 26.67150, -0.38188, 2.24576, 9.70609, 0.00999, 0.07847, 0.03304
922, 20843, 37.19703, 45.32111, 52.16781, 26.62040, -0.31843, 2.30202, 9.71088, 0.00973, 0.07887, 0.03411
923, 20864, 37.19703, 45.32111, 52.16781, 26.67150, -0.40342, 2.31759, 9.71328, 0.00786, 0.07821, 0.03291
924, 20889, 37.19703, 45.32111, 52.16781, 26.67150, -0.36272, 2.31998, 9.78391, 0.01053, 0.07941, 0.03397
925, 20910, 37.19703, 45.32111, 52.16781, 26.67150, -0.39744, 2.31519, 9.76116, 0.00946, 0.08047, 0.03291
926, 20931, 37.19703, 45.32111, 52.16781, 26.67150, -0.39265, 2.30801, 9.70250, 0.00893, 0.07834, 0.03264
927, 20952, 37.19703, 45.32111, 52.16781, 26.67150, -0.42138, 2.30202, 9.73842, 0.00973, 0.07941, 0.03304
928, 20973, 37.19703, 45.32111, 52.16781, 26.67150, -0.41659, 2.32716, 9.70370, 0.00746, 0.07954, 0.03304
929, 20998, 37.19703, 45.32111, 52.16781, 26.67150, -0.39983, 2.29843, 9.75158, 0.00879, 0.07981, 0.03437
930, 21019, 37.19703, 45.32111, 52.16781, 26.67150, -0.37230, 2.30921, 9.76595, 0.00773, 0.08087, 0.03477
931, 21040, 37.19703, 45.32111, 52.16781, 26.67150, -0.32322, 2.29005, 9.79468, 0.00719, 0.08047, 0.03424
932, 21062, 37.19703, 45.32111, 52.16781, 26.67150, -0.37110, 2.26252, 9.74081, 0.00799, 0.07994, 0.03357
933, 21086, 37.19703, 45.32111, 52.16781, 26.67150, -0.39265, 2.26372, 9.70370, 0.00826, 0.08154, 0.03277
934, 21107, 37.19703, 45.32111, 52.16781, 26.67150, -0.34477, 2.27210, 9.76116, 0.00893, 0.07861, 0.03424
935, 21128, 37.19703, 45.32111, 52.16781, 26.67150, -0.37110, 2.30202, 9.74679, 0.00786, 0.07914, 0.03411
936, 21150, 37.19703, 45.32111, 52.16781, 26.67150, -0.36512, 2.32597, 9.72285, 0.00919, 0.07861, 0.03251
937, 21171, 37.19703, 45.32111, 52.16781, 26.67150, -0.37589, 2.30921, 9.71447, 0.00986, 0.07927, 0.03291
938, 21195, 37.19703, 45.32111, 52.16781, 26.67150, -0.37828, 2.29843, 9.68933, 0.00946, 0.08087, 0.03251
939, 21217, 37.19703, 45.32111, 52.16781, 26.67150, -0.41779, 2.30083, 9.72644, 0.00946, 0.08154, 0.03291
940, 21238, 37.19703, 45.32111, 52.16781, 26.67150, -0.43455, 2.29365, 9.76236, 0.00879, 0.08034, 0.03238
941, 21259, 37.19703, 45.32111, 52.16781, 26.67150, -0.43574, 2.27569, 9.74201, 0.00893, 0.08007, 0.03317
942, 21280, 37.19703, 45.32111, 52.16781, 26.67150, -0.38188, 2.28527, 9.79228, 0.00906, 0.07794, 0.03238
943, 21305, 37.19703, 45.32111, 52.16781, 26.67150, -0.39863, 2.32118, 9.76236, 0.00813, 0.07967, 0.03264
944, 21326, 37.19703, 45.32111, 52.16781, 26.67150, -0.39744, 2.31280, 9.69173, 0.00826, 0.07821, 0.03397
945, 21347, 37.19703, 45.32111, 52.16781, 26.67150, -0.35434, 2.31759, 9.70849, 0.00973, 0.07981, 0.03171
946, 21368, 37.19703, 45.32111, 52.16781, 26.67150, -0.33758, 2.24935, 9.72046, 0.00839, 0.08034, 0.03304
947, 21389, 37.19703, 45.32111, 52.16781, 26.67150, -0.40342, 2.31998, 9.83538, 0.00799, 0.07821, 0.03384
948, 21414, 37.19703, 45.32111, 52.16781, 26.67150, -0.42976, 2.31519, 9.82221, 0.00999, 0.07941, 0.03371
949, 21435, 37.19703, 45.32111, 52.16781, 26.67150, -0.39504, 2.29724, 9.72046, 0.01106, 0.07927, 0.03251
950, 21456, 37.19703, 45.32111, 52.16781, 26.67150, -0.35434, 2.28527, 9.71687, 0.00906, 0.07901, 0.03264
951, 21478, 37.19703, 45.32111, 52.16781, 26.67150, -0.39025, 2.27689, 9.76954, 0.00973, 0.07887, 0.03331
952, 21502, 37.19703, 45.32111, 52.16781, 26.67150, -0.36990, 2.28646, 9.73123, 0.00946, 0.07821, 0.03277
953, 21523, 37.19703, 45.32111, 52.16781, 26.67150, -0.36152, 2.25773, 9.79228, 0.00986, 0.07927, 0.03317
954, 21544, 37.19703, 45.32111, 52.16781, 26.67150, -0.33399, 2.30681, 9.75877, 0.00786, 0.07954, 0.03317
955, 21565, 37.19703, 45.32111, 52.16781, 26.67150, -0.38307, 2.32477, 9.60554, 0.00626, 0.08367, 0.03224
956, 21587, 37.19703, 45.32111, 52.16781, 26.62040, -0.33519, 2.38462, 9.79588, 0.00759, 0.08247, 0.03211
957, 21621, 37.19703, 45.32111, 52.16781, 26.67150, -0.46088, 2.30801, 9.89643, 0.01199, 0.07901, 0.03331
958, 21643, 37.19703, 45.32111, 52.16781, 26.67150, -0.42617, 2.24097, 9.77792, 0.01106, 0.07674, 0.03384
959, 21664, 37.19703, 45.32111, 52.16781, 26.67150, -0.41420, 2.26372, 9.67856, 0.00959, 0.07488, 0.03371
960, 21685, 37.19703, 45.32111, 52.16781, 26.67150, -0.36152, 2.25534, 9.54927, 0.01039, 0.07701, 0.03477
961, 21707, 37.19703, 45.32111, 52.16781, 26.67150, -0.35554, 2.34153, 9.67138, 0.00679, 0.08007, 0.03291
962, 21732, 37.19703, 45.32111, 52.16781, 26.67150, -0.36033, 2.29365, 9.81024, 0.00866, 0.07994, 0.03264
963, 21753, 37.19703, 45.32111, 52.16781, 26.67150, -0.40342, 2.31400, 9.86291, 0.00679, 0.08314, 0.03331
964, 21774, 37.19703, 45.32111, 52.16781, 26.67150, -0.40941, 2.29005, 9.83299, 0.00986, 0.08047, 0.03331
965, 21796, 37.19703, 45.32111, 52.16781, 26.67150, -0.40103, 2.31878, 9.70250, 0.00986, 0.08060, 0.03304
966, 21817, 37.19703, 45.32111, 52.16781, 26.67150, -0.39385, 2.31280, 9.66898, 0.00946, 0.07821, 0.03304
967, 21842, 37.19703, 45.32111, 52.16781, 26.67150, -0.35434, 2.34632, 9.82940, 0.00959, 0.07967, 0.03264
968, 21864, 37.19703, 45.32111, 52.16781, 26.67150, -0.32801, 2.31040, 9.82461, 0.00879, 0.07994, 0.03357
969, 21885, 37.19703, 45.32111, 52.16781, 26.67150, -0.35075, 2.28886, 9.73722, 0.00986, 0.07861, 0.03291
970, 21907, 37.19703, 45.32111, 52.16781, 26.67150, -0.35195, 2.25175, 9.70729, 0.00999, 0.07901, 0.03198
971, 21928, 37.19703, 45.32111, 52.16781, 26.67150, -0.43455, 2.29484, 9.66180, 0.00746, 0.07914, 0.03291
972, 21953, 37.19703, 45.32111, 52.16781, 26.67150, -0.38188, 2.26372, 9.78031, 0.00826, 0.07927, 0.03357
973, 21975, 37.19703, 45.32111, 52.16781, 26.67150, -0.39145, 2.27808, 9.79947, 0.00893, 0.08114, 0.03451
974, 21996, 37.19703, 45.32111, 52.16781, 26.67150, -0.41300, 2.32238, 9.72525, 0.00799, 0.07981, 0.03224
975, 22018, 37.19703, 45.32111, 52.16781, 26.67150, -0.35314, 2.30921, 9.74320, 0.00799, 0.08007, 0.03371
976, 22043, 37.19703, 45.32111, 52.16781, 26.67150, -0.38188, 2.30083, 9.73602, 0.00813, 0.08194, 0.03437
977, 22064, 37.19703, 45.32111, 52.16781, 26.67150, -0.37589, 2.27090, 9.70969, 0.01013, 0.07914, 0.03344
978, 22086, 37.19703, 45.32111, 52.16781, 26.67150, -0.37948, 2.27808, 9.75398, 0.00839, 0.08047, 0.03344
979, 22107, 37.19703, 45.32111, 52.16781, 26.67150, -0.37828, 2.29724, 9.78031, 0.00879, 0.08100, 0.03291
980, 22128, 37.19703, 45.32111, 52.16781, 26.67150, -0.39145, 2.32716, 9.77313, 0.00879, 0.07994, 0.03251
981, 22153, 37.19703, 45.32111, 52.16781, 26.67150, -0.36990, 2.31759, 9.72166, 0.01066, 0.07874, 0.03291
982, 22175, 37.19703, 45.32111, 52.16781, 26.67150, -0.40701, 2.24696, 9.70011, 0.00866, 0.08114, 0.03317
983, 22196, 37.19703, 45.32111, 52.16781, 26.67150, -0.34836, 2.32956, 9.63906, 0.00879, 0.07807, 0.03251
984, 22218, 37.19703, 45.32111, 52.16781, 26.67150, -0.36152, 2.31400, 9.68095, 0.00839, 0.08100, 0.03371
985, 22239, 37.19703, 45.32111, 52.16781, 26.67150, -0.40462, 2.31280, 9.81982, 0.00813, 0.08100, 0.03238
986, 22264, 37.19703, 45.32111, 52.16781, 26.62040, -0.42258, 2.36188, 9.84376, 0.00973, 0.07781, 0.03384
987, 22286, 37.19703, 45.32111, 52.16781, 26.67150, -0.44532, 2.32597, 9.75517, 0.00986, 0.07914, 0.03397
988, 22307, 37.19703, 45.32111, 52.16781, 26.67150, -0.39624, 2.21823, 9.67138, 0.01066, 0.07727, 0.03451
989, 22329, 37.19703, 45.32111, 52.16781, 26.67150, -0.35075, 2.23618, 9.72166, 0.01066, 0.07674, 0.03437
990, 22350, 37.19703, 45.32111, 52.16781, 26.67150, -0.40701, 2.32716, 9.84615, 0.00679, 0.08167, 0.03251
991, 22375, 37.19703, 45.32111, 52.16781, 26.67150, -0.39744, 2.34512, 10.10473, 0.01359, 0.07847, 0.03224
992, 22396, 37.19703, 45.32111, 52.16781, 26.67150, -0.31005, 2.28167, 9.68933, 0.01186, 0.07701, 0.03344
993, 22418, 37.19703, 45.32111, 52.16781, 26.62040, -0.39744, 2.22062, 9.63187, 0.00853, 0.08007, 0.03291
994, 22439, 37.19703, 45.32111, 52.16781, 26.67150, -0.40701, 2.29843, 9.68694, 0.00693, 0.08260, 0.03277
995, 22461, 37.19703, 45.32111, 52.16781, 26.67150, -0.40582, 2.28048, 9.71806, 0.00799, 0.08074, 0.03331
996, 22495, 37.19703, 45.32111, 52.16781, 26.67150, -0.34357, 2.35589, 9.68095, 0.00826, 0.08100, 0.03238
997, 22515, 37.19703, 45.32111, 52.16781, 26.67150, -0.36392, 2.36667, 9.65222, 0.00799, 0.08140, 0.03397
998, 22535, 37.19703, 45.32111, 52.16781, 26.67150, -0.38786, 2.40019, 9.69173, 0.00666, 0.08234, 0.03331
999, 22556, 37.19703, 45.32111, 52.16781, 26.62040, -0.38906, 2.39660, 9.69771, 0.00600, 0.08194, 0.03317
1000, 22579, 37.19703, 45.32111, 52.16781, 26.67150, -0.38068, 2.40857, 9.81383, 0.00693, 0.08127, 0.03437
1001, 22599, 37.19703, 45.32111, 52.16781, 26.67150, -0.39265, 2.41455, 9.84855, 0.00746, 0.08047, 0.03238
1002, 22619, 37.19703, 45.32111, 52.16781, 26.67150, -0.37469, 2.40737, 9.89883, 0.01092, 0.07941, 0.03238
1003, 22640, 37.19703, 45.32111, 52.16781, 26.67150, -0.32202, 2.30681, 9.83658, 0.01359, 0.07781, 0.03144
1004, 22660, 37.19703, 45.32111, 52.16781, 26.67150, -0.47285, 2.20506, 9.75158, 0.01106, 0.07488, 0.03251
1005, 22683, 37.19703, 45.32111, 52.16781, 26.67150, -0.48961, 2.10570, 9.66300, 0.01026, 0.07834, 0.03171
1006, 22704, 37.19703, 45.32111, 52.16781, 26.62040, -0.41539, 2.08056, 9.61990, 0.00906, 0.07954, 0.03224
1007, 22724, 37.19703, 45.32111, 52.16781, 26.67150, -0.31843, 2.21224, 9.78151, 0.01039, 0.08194, 0.03331
1008, 22744, 37.19703, 45.32111, 52.16781, 26.62040, -0.33519, 2.18710, 9.73363, 0.01013, 0.08314, 0.03317
1009, 22765, 37.19703, 45.32111, 52.16781, 26.67150, -0.35195, 2.18471, 9.74919, 0.00933, 0.08287, 0.03331
1010, 22788, 37.19703, 45.32111, 52.16781, 26.67150, -0.45610, 2.25414, 9.77313, 0.00853, 0.08207, 0.03304
1011, 22808, 37.19703, 45.32111, 52.16781, 26.62040, -0.44772, 2.29245, 9.83658, 0.00759, 0.08274, 0.03397
1012, 22829, 37.19703, 45.32111, 52.16781, 26.67150, -0.35674, 2.33195, 9.70849, 0.00839, 0.08340, 0.03531
1013, 22849, 37.19703, 45.32111, 52.16781, 26.67150, -0.36033, 2.37146, 9.75158, 0.00879, 0.08154, 0.03158
1014, 22878, 37.19703, 45.32111, 52.16781, 26.67150, -0.33878, 2.44209, 9.71926, 0.00959, 0.08087, 0.03317
1015, 22901, 37.24812, 45.32111, 52.16781, 26.62040, -0.36871, 2.47082, 9.71208, 0.00719, 0.07981, 0.03437
1016, 22921, 37.24812, 45.32111, 52.16781, 26.67150, -0.35434, 2.46722, 9.67497, 0.00826, 0.08060, 0.03384
1017, 22942, 37.24812, 45.32111, 52.16781, 26.67150, -0.35434, 2.37625, 9.72046, 0.00919, 0.07807, 0.03464
1018, 22962, 37.24812, 45.32111, 52.16781, 26.67150, -0.37828, 2.36068, 9.80426, 0.00839, 0.07554, 0.03251
1019, 22985, 37.24812, 45.32111, 52.16781, 26.67150, -0.40701, 2.20865, 9.72405, 0.01039, 0.07741, 0.03171
1020, 23006, 37.24812, 45.32111, 52.16781, 26.67150, -0.44532, 2.12845, 9.67138, 0.00826, 0.07647, 0.03251
1021, 23026, 37.24812, 45.32111, 52.16781, 26.67150, -0.40941, 2.14161, 9.75278, 0.00826, 0.07781, 0.03371
1022, 23046, 37.24812, 45.32111, 52.16781, 26.67150, -0.34955, 2.24456, 9.78031, 0.00759, 0.08060, 0.03371
1023, 23067, 37.24812, 45.32111, 52.16781, 26.67150, -0.36392, 2.31160, 9.80306, 0.00973, 0.08007, 0.03224
1024, 23090, 37.24812, 45.32111, 52.16781, 26.67150, -0.47884, 2.30322, 9.80904, 0.00666, 0.08327, 0.03331
1025, 23110, 37.24812, 45.32111, 52.16781, 26.67150, -0.45490, 2.36427, 9.98502, 0.00600, 0.07994, 0.03371
1026, 23131, 37.19703, 45.32111, 52.16781, 26.67150, -0.39025, 2.43730, 9.97305, 0.00946, 0.08047, 0.03331
1027, 23151, 37.24812, 45.32111, 52.16781, 26.67150, -0.28850, 2.41575, 9.74320, 0.00906, 0.07994, 0.03384
1028, 23171, 37.24812, 45.32111, 52.16781, 26.67150, -0.35434, 2.35589, 9.62349, 0.00773, 0.07901, 0.03331
1029, 23194, 37.24812, 45.32111, 52.16781, 26.67150, -0.39145, 2.33195, 9.64744, 0.00693, 0.08100, 0.03331
1030, 23215, 37.19703, 45.32111, 52.16781, 26.67150, -0.36631, 2.43011, 9.83418, 0.00839, 0.07954, 0.03424
1031, 23235, 37.19703, 45.32111, 52.16781, 26.67150, -0.42377, 2.44328, 9.84137, 0.01106, 0.07647, 0.03411
1032, 23255, 37.19703, 45.32111, 52.16781, 26.67150, -0.40821, 2.33554, 9.79588, 0.01079, 0.07488, 0.03371
1033, 23275, 37.19703, 45.32111, 52.16781, 26.67150, -0.36631, 2.23618, 9.75398, 0.01146, 0.07714, 0.03198
1034, 23301, 37.19703, 45.32111, 52.16781, 26.67150, -0.32561, 2.18830, 9.64504, 0.00786, 0.07501, 0.03144
1035, 23322, 37.19703, 45.32111, 52.16781, 26.67150, -0.36033, 2.14520, 9.68215, 0.00813, 0.07834, 0.03224
1036, 23343, 37.19703, 45.32111, 52.16781, 26.67150, -0.37350, 2.14880, 9.77912, 0.00866, 0.08167, 0.03424
1037, 23364, 37.19703, 45.32111, 52.16781, 26.67150, -0.45610, 2.22421, 9.71328, 0.01053, 0.08100, 0.03264
1038, 23389, 37.19703, 45.32111, 52.16781, 26.67150, -0.54229, 2.34871, 9.72525, 0.00560, 0.07901, 0.03198
1039, 23410, 37.19703, 45.32111, 52.16781, 26.67150, -0.43215, 2.39540, 9.73722, 0.00600, 0.07741, 0.03357
1040, 23431, 37.19703, 45.32111, 52.16781, 26.67150, -0.49919, 2.34751, 9.67497, 0.01092, 0.08513, 0.03317
1041, 23452, 37.19703, 45.32111, 52.16781, 26.62040, -0.42497, 2.35350, 9.63786, 0.00573, 0.07887, 0.03424
1042, 23473, 37.19703, 45.32111, 52.16781, 26.67150, -0.32082, 2.35709, 9.75158, 0.00733, 0.08034, 0.03531
1043, 23498, 37.19703, 45.32111, 52.16781, 26.67150, -0.36631, 2.38103, 9.90960, 0.00919, 0.07847, 0.03597
1044, 23519, 37.19703, 45.32111, 52.16781, 26.67150, -0.43574, 2.34751, 9.88207, 0.01132, 0.07647, 0.03437
1045, 23540, 37.19703, 45.32111, 52.16781, 26.67150, -0.37828, 2.28766, 9.74081, 0.01226, 0.07701, 0.03451
1046, 23561, 37.19703, 45.32111, 52.16781, 26.67150, -0.39983, 2.20147, 9.69532, 0.00813, 0.07568, 0.03397
1047, 23583, 37.19703, 45.32111, 52.16781, 26.67150, -0.33758, 2.16196, 9.75996, 0.00946, 0.07647, 0.03477
1048, 23607, 37.19703, 45.32111, 52.16781, 26.67150, -0.31364, 2.27329, 9.73722, 0.01132, 0.07967, 0.03251
1049, 23628, 37.19703, 45.32111, 52.01453, 26.67150, -0.58059, 2.20865, 9.62110, 0.01159, 0.08287, 0.03224
1050, 23650, 37.19703, 45.32111, 52.16781, 26.67150, -0.32202, 2.27808, 9.74320, 0.00973, 0.08140, 0.03371
1051, 23671, 37.19703, 45.32111, 52.16781, 26.67150, -0.39385, 2.25414, 9.70131, 0.00466, 0.08327, 0.03331
1052, 23695, 37.24812, 45.32111, 52.16781, 26.67150, -0.43934, 2.33674, 9.81742, 0.00600, 0.08007, 0.03291
1053, 23717, 37.19703, 45.32111, 52.16781, 26.67150, -0.38188, 2.35949, 9.69412, 0.00879, 0.07901, 0.03504
